* Sea-Bird SBE37SM-RS232  Data File:
* FileName = C:\Users\OZE\POGO2023\SBE37SM-RS232_03710614_2023_10_11_POGO.hex
* Software version SeatermV2 2.3.0
* Temperature SN = 10614
* Conductivity SN = 10614
* System UpLoad Time = Oct 11 2023 11:10:17
* sample interval = 600 seconds
* <ApplicationData>
* <Seaterm232>
* <SoftwareVersion>2.3.0</SoftwareVersion>
* <BuildDate>11-Sep-2013</BuildDate>
* </Seaterm232>
* </ApplicationData>
* <InstrumentState>
* <HardwareData DeviceType='SBE37SM-RS232' SerialNumber='03710614'>
*    <Manufacturer>Sea-Bird Electronics, Inc.</Manufacturer>
*    <FirmwareVersion>4.1</FirmwareVersion>
*    <FirmwareDate>Jan 17 2012 15:32:03</FirmwareDate>
*    <CommandSetVersion>1.0</CommandSetVersion>
*    <PCBAssembly>41720A</PCBAssembly>
*    <PCBSerialNum>53617</PCBSerialNum>
*    <PCBAssembly>41660B</PCBAssembly>
*    <PCBSerialNum>53446</PCBSerialNum>
*    <PCBAssembly>41661B</PCBAssembly>
*    <PCBSerialNum>56801</PCBSerialNum>
*    <MfgDate>21-Mar-2013</MfgDate>
*    <FirmwareLoader>SBE 37-232-V3 FirmwareLoader V 1.0</FirmwareLoader>
*    <InternalSensors>
*       <Sensor id='Temperature'>
*          <type>temperature-1</type>
*          <SerialNumber>03710614</SerialNumber>
*       </Sensor>
*       <Sensor id='Conductivity'>
*          <type>conductivity-1</type>
*          <SerialNumber>03710614</SerialNumber>
*       </Sensor>
*       <Sensor id='Pressure'>
*          <type>strain-0</type>
*          <SerialNumber>3809173</SerialNumber>
*       </Sensor>
*    </InternalSensors>
* </HardwareData>
* <StatusData DeviceType='SBE37SM-RS232' SerialNumber='03710614'>
*    <DateTime>2023-10-11T11:09:52</DateTime>
*    <EventSummary numEvents='5'/>
*    <Power>
*       <vMain>11.42</vMain>
*       <vLith> 3.13</vLith>
*    </Power>
*    <MemorySummary>
*       <Bytes>17415</Bytes>
*       <Samples>1161</Samples>
*       <SamplesFree>558079</SamplesFree>
*       <SampleLength>15</SampleLength>
*    </MemorySummary>
*    <AutonomousSampling>no, stop command</AutonomousSampling>
* </StatusData>
* <ConfigurationData DeviceType='SBE37SM-RS232' SerialNumber='03710614'>
*    <PressureInstalled>yes</PressureInstalled>
*    <PumpInstalled>yes</PumpInstalled>
*    <MinCondFreq>3181.6</MinCondFreq>
*    <SampleDataFormat>converted engineering</SampleDataFormat>
*    <OutputSalinity>yes</OutputSalinity>
*    <OutputSV>no</OutputSV>
*    <TxRealTime>no</TxRealTime>
*    <SampleInterval>600</SampleInterval>
*    <SyncMode>no</SyncMode>
* </ConfigurationData>
* <CalibrationCoefficients DeviceType='SBE37SM-RS232' SerialNumber='03710614'>
*    <Calibration format='TEMP1' id='Temperature'>
*       <SerialNum>03710614</SerialNum>
*       <CalDate>21-Feb-17</CalDate>
*       <A0>-9.000018e-05</A0>
*       <A1>3.023948e-04</A1>
*       <A2>-4.057458e-06</A2>
*       <A3>1.904045e-07</A3>
*    </Calibration>
*    <Calibration format='WBCOND0' id='Conductivity'>
*       <SerialNum>03710614</SerialNum>
*       <CalDate>21-Feb-17</CalDate>
*       <G>-9.793877e-01</G>
*       <H>1.369850e-01</H>
*       <I>-4.209636e-04</I>
*       <J>4.871116e-05</J>
*       <PCOR>-9.570000e-08</PCOR>
*       <TCOR>3.250000e-06</TCOR>
*       <WBOTC>8.390699e-07</WBOTC>
*    </Calibration>
*    <Calibration format='STRAIN0' id='Pressure'>
*       <SerialNum>3809173</SerialNum>
*       <CalDate>16-Feb-17</CalDate>
*       <PA0>2.677197e-03</PA0>
*       <PA1>4.968300e-04</PA1>
*       <PA2>-8.050309e-12</PA2>
*       <PTCA0>5.253105e+05</PTCA0>
*       <PTCA1>3.081861e+00</PTCA1>
*       <PTCA2>-1.232558e-01</PTCA2>
*       <PTCB0>2.503363e+01</PTCB0>
*       <PTCB1>-7.500000e-05</PTCB1>
*       <PTCB2>0.000000e+00</PTCB2>
*       <PTEMPA0>-6.639076e+01</PTEMPA0>
*       <PTEMPA1>5.296760e-02</PTEMPA1>
*       <PTEMPA2>-6.041387e-07</PTEMPA2>
*       <POFFSET>0.000000e+00</POFFSET>
*       <PRANGE>1.600000e+02</PRANGE>
*    </Calibration>
* </CalibrationCoefficients>
* <EventCounters DeviceType='SBE37SM-RS232' SerialNumber='03710614'>
*    <EventSummary numEvents='5'/>
*    <Event type='PON reset' count='5'/>
* </EventCounters></InstrumentState>
# nquan = 11
# nvalues = 1161                                  
# units = specified
# name 0 = density00: Density [density, kg/m^3]
# name 1 = cond0S/m: Conductivity [S/m]
# name 2 = potemp090C: Potential Temperature [ITS-90, deg C]
# name 3 = prdM: Pressure, Strain Gauge [db]
# name 4 = sal00: Salinity, Practical [PSU]
# name 5 = tv290C: Temperature [ITS-90, deg C]
# name 6 = timeM: Time, Elapsed [minutes]
# name 7 = timeS: Time, Elapsed [seconds]
# name 8 = timeH: Time, Elapsed [hours]
# name 9 = timeJ: Julian Days
# name 10 = flag:  0.000e+00
# span 0 =   997.7035,  1023.8493                 
# span 1 =   0.000179,   4.290404                 
# span 2 =    16.2288,    22.3339                 
# span 3 =     -0.102,      1.756                 
# span 4 =     0.0102,    32.9426                 
# span 5 =    16.2291,    22.3339                 
# span 6 =     0.0000, 11600.0000                 
# span 7 =      0.000, 696000.000                 
# span 8 =    0.00000,  193.33333                 
# span 9 = 276.402257, 284.457812                 
# span 10 = 0.0000e+00, 0.0000e+00                
# interval = seconds: 600
# start_time = Oct 03 2023 09:39:15 [Instrument's time stamp, first data scan]
# bad_flag = -9.990e-29
# <Sensors count="3" >
#   <sensor Channel="1" >
#     <!-- Count, Temperature -->
#     <TemperatureSensor SensorID="58" >
#       <SerialNumber>10614</SerialNumber>
#       <CalibrationDate>21-Feb-17</CalibrationDate>
#       <A0>-9.00001800e-005</A0>
#       <A1>3.02394800e-004</A1>
#       <A2>-4.05745800e-006</A2>
#       <A3>1.90404500e-007</A3>
#       <Slope>1.00000000</Slope>
#       <Offset>0.0000</Offset>
#     </TemperatureSensor>
#   </sensor>
#   <sensor Channel="2" >
#     <!-- Frequency 0, Conductivity -->
#     <ConductivitySensor SensorID="3" >
#       <SerialNumber>10614</SerialNumber>
#       <CalibrationDate>21-Feb-17</CalibrationDate>
#       <UseG_J>1</UseG_J>
#       <!-- Cell const and series R are applicable only for wide range sensors. -->
#       <SeriesR>0.0000</SeriesR>
#       <CellConst>2000.0000</CellConst>
#       <ConductivityType>1</ConductivityType>
#       <Coefficients equation="0" >
#         <A>0.00000000e+000</A>
#         <B>0.00000000e+000</B>
#         <C>0.00000000e+000</C>
#         <D>0.00000000e+000</D>
#         <M>0.0</M>
#         <CPcor>-9.57000000e-008</CPcor>
#       </Coefficients>
#       <Coefficients equation="1" >
#         <G>-9.79387700e-001</G>
#         <H>1.36985000e-001</H>
#         <I>-4.20963600e-004</I>
#         <J>4.87111600e-005</J>
#         <CPcor>-9.57000000e-008</CPcor>
#         <CTcor>3.2500e-006</CTcor>
#         <!-- WBOTC not applicable unless ConductivityType = 1. -->
#         <WBOTC>8.39069900e-007</WBOTC>
#       </Coefficients>
#       <Slope>1.00000000</Slope>
#       <Offset>0.00000</Offset>
#     </ConductivitySensor>
#   </sensor>
#   <sensor Channel="3" >
#     <!-- Count, Pressure, Strain Gauge -->
#     <PressureSensor SensorID="46" >
#       <SerialNumber>3809173</SerialNumber>
#       <CalibrationDate>16-Feb-17</CalibrationDate>
#       <PA0>2.67719700e-003</PA0>
#       <PA1>4.96830000e-004</PA1>
#       <PA2>-8.05030900e-012</PA2>
#       <PTEMPA0>-6.63907600e+001</PTEMPA0>
#       <PTEMPA1>5.29676000e-002</PTEMPA1>
#       <PTEMPA2>-6.04138700e-007</PTEMPA2>
#       <PTCA0>5.25310500e+005</PTCA0>
#       <PTCA1>3.08186100e+000</PTCA1>
#       <PTCA2>-1.23255800e-001</PTCA2>
#       <PTCB0>2.50336300e+001</PTCB0>
#       <PTCB1>-7.50000000e-005</PTCB1>
#       <PTCB2>0.00000000e+000</PTCB2>
#       <Offset>0.000000</Offset>
#     </PressureSensor>
#   </sensor>
# </Sensors>
# datcnv_date = Oct 11 2023 11:15:54, 7.23.1 [datcnv_vars = 10]
# datcnv_in = C:\Users\OZE\POGO2023\sbe37sm-rs232_03710614_2023_10_11_pogo.hex C:\Users\OZE\POGO2023\SBE37SM-RS232_03710614_2023_10_11_POGO.xmlcon
# datcnv_skipover = 0
# file_type = ascii
*END*
   997.7107   0.000257    22.3027     -0.102     0.0111    22.3027     0.0000      0.000    0.00000 276.402257  0.000e+00
   997.7123   0.000254    22.2958     -0.097     0.0111    22.2958    10.0000    600.000    0.16667 276.409201  0.000e+00
   997.7035   0.000254    22.3339     -0.097     0.0111    22.3339    20.0000   1200.000    0.33333 276.416146  0.000e+00
   997.7361   0.000252    22.1921     -0.090     0.0110    22.1920    30.0000   1800.000    0.50000 276.423090  0.000e+00
   997.7596   0.000249    22.0889     -0.084     0.0110    22.0889    40.0000   2400.000    0.66667 276.430035  0.000e+00
   997.7503   0.000246    22.1296     -0.085     0.0110    22.1296    50.0000   3000.000    0.83333 276.436979  0.000e+00
   997.7816   0.000246    21.9924     -0.082     0.0110    21.9924    60.0000   3600.000    1.00000 276.443924  0.000e+00
   997.8326   0.000243    21.7663     -0.078     0.0109    21.7663    70.0000   4200.000    1.16667 276.450868  0.000e+00
   997.8872   0.000240    21.5215     -0.075     0.0108    21.5215    80.0000   4800.000    1.33333 276.457812  0.000e+00
   997.9457   0.000237    21.2559     -0.073     0.0107    21.2559    90.0000   5400.000    1.50000 276.464757  0.000e+00
   997.9946   0.000233    21.0319     -0.072     0.0106    21.0319   100.0000   6000.000    1.66667 276.471701  0.000e+00
   998.0217   0.000228    20.9066     -0.068     0.0105    20.9066   110.0000   6600.000    1.83333 276.478646  0.000e+00
   998.0393   0.000225    20.8249     -0.067     0.0105    20.8249   120.0000   7200.000    2.00000 276.485590  0.000e+00
   998.0495   0.000222    20.7771     -0.066     0.0105    20.7770   130.0000   7800.000    2.16667 276.492535  0.000e+00
   998.0476   0.000219    20.7861     -0.062     0.0105    20.7861   140.0000   8400.000    2.33333 276.499479  0.000e+00
   998.0436   0.000216    20.8046     -0.059     0.0105    20.8046   150.0000   9000.000    2.50000 276.506424  0.000e+00
   998.0387   0.000213    20.8276     -0.058     0.0105    20.8276   160.0000   9600.000    2.66667 276.513368  0.000e+00
   998.0334   0.000211    20.8524     -0.055     0.0105    20.8524   170.0000  10200.000    2.83333 276.520312  0.000e+00
   998.0268   0.000208    20.8830     -0.055     0.0105    20.8830   180.0000  10800.000    3.00000 276.527257  0.000e+00
   998.0192   0.000205    20.9181     -0.053     0.0105    20.9181   190.0000  11400.000    3.16667 276.534201  0.000e+00
   998.0099   0.000205    20.9611     -0.052     0.0105    20.9611   200.0000  12000.000    3.33333 276.541146  0.000e+00
   998.0002   0.000202    21.0060     -0.051     0.0105    21.0059   210.0000  12600.000    3.50000 276.548090  0.000e+00
   997.9890   0.000202    21.0579     -0.051     0.0105    21.0579   220.0000  13200.000    3.66667 276.555035  0.000e+00
   997.9493   0.000197    21.2397     -0.049     0.0106    21.2397   230.0000  13800.000    3.83333 276.561979  0.000e+00
   997.9496   0.000197    21.2385     -0.047     0.0106    21.2385   240.0000  14400.000    4.00000 276.568924  0.000e+00
   997.9503   0.000197    21.2355     -0.045     0.0106    21.2355   250.0000  15000.000    4.16667 276.575868  0.000e+00
   997.9488   0.000194    21.2422     -0.045     0.0106    21.2422   260.0000  15600.000    4.33333 276.582812  0.000e+00
   997.9473   0.000194    21.2493     -0.044     0.0106    21.2493   270.0000  16200.000    4.50000 276.589757  0.000e+00
   997.9461   0.000194    21.2548     -0.042     0.0106    21.2548   280.0000  16800.000    4.66667 276.596701  0.000e+00
   997.9453   0.000194    21.2583     -0.041     0.0106    21.2583   290.0000  17400.000    4.83333 276.603646  0.000e+00
   997.9448   0.000191    21.2607     -0.039     0.0106    21.2607   300.0000  18000.000    5.00000 276.610590  0.000e+00
   997.9441   0.000194    21.2636     -0.039     0.0106    21.2636   310.0000  18600.000    5.16667 276.617535  0.000e+00
   997.9429   0.000191    21.2694     -0.037     0.0106    21.2694   320.0000  19200.000    5.33333 276.624479  0.000e+00
   997.9410   0.000191    21.2780     -0.036     0.0106    21.2780   330.0000  19800.000    5.50000 276.631424  0.000e+00
   997.9385   0.000191    21.2896     -0.035     0.0106    21.2896   340.0000  20400.000    5.66667 276.638368  0.000e+00
   997.9420   0.000191    21.2736     -0.029     0.0106    21.2736   350.0000  21000.000    5.83333 276.645312  0.000e+00
   997.9863   0.000188    21.0706     -0.028     0.0105    21.0706   360.0000  21600.000    6.00000 276.652257  0.000e+00
   998.0457   0.000185    20.7952     -0.030     0.0104    20.7952   370.0000  22200.000    6.16667 276.659201  0.000e+00
   998.0724   0.000185    20.6705     -0.029     0.0103    20.6705   380.0000  22800.000    6.33333 276.666146  0.000e+00
   998.0817   0.000182    20.6269     -0.029     0.0103    20.6269   390.0000  23400.000    6.50000 276.673090  0.000e+00
   998.0851   0.000182    20.6107     -0.028     0.0103    20.6107   400.0000  24000.000    6.66667 276.680035  0.000e+00
   998.0866   0.000182    20.6039     -0.027     0.0103    20.6039   410.0000  24600.000    6.83333 276.686979  0.000e+00
   998.0876   0.000182    20.5992     -0.027     0.0103    20.5992   420.0000  25200.000    7.00000 276.693924  0.000e+00
   998.0884   0.000179    20.5953     -0.026     0.0103    20.5953   430.0000  25800.000    7.16667 276.700868  0.000e+00
   998.0892   0.000179    20.5915     -0.024     0.0103    20.5915   440.0000  26400.000    7.33333 276.707812  0.000e+00
   998.0902   0.000182    20.5869     -0.025     0.0103    20.5869   450.0000  27000.000    7.50000 276.714757  0.000e+00
   998.0910   0.000179    20.5832     -0.022     0.0103    20.5832   460.0000  27600.000    7.66667 276.721701  0.000e+00
   998.0918   0.000182    20.5795     -0.019     0.0103    20.5795   470.0000  28200.000    7.83333 276.728646  0.000e+00
   998.0925   0.000179    20.5762     -0.015     0.0103    20.5762   480.0000  28800.000    8.00000 276.735590  0.000e+00
   998.0929   0.000179    20.5742     -0.015     0.0103    20.5742   490.0000  29400.000    8.16667 276.742535  0.000e+00
   998.0933   0.000182    20.5724     -0.013     0.0103    20.5724   500.0000  30000.000    8.33333 276.749479  0.000e+00
   998.0936   0.000182    20.5710     -0.013     0.0103    20.5710   510.0000  30600.000    8.50000 276.756424  0.000e+00
   998.0937   0.000182    20.5705     -0.012     0.0103    20.5705   520.0000  31200.000    8.66667 276.763368  0.000e+00
   998.0939   0.000182    20.5699     -0.012     0.0103    20.5699   530.0000  31800.000    8.83333 276.770312  0.000e+00
   998.0939   0.000182    20.5696     -0.010     0.0103    20.5696   540.0000  32400.000    9.00000 276.777257  0.000e+00
   998.0940   0.000182    20.5694     -0.007     0.0103    20.5694   550.0000  33000.000    9.16667 276.784201  0.000e+00
   998.0940   0.000185    20.5693     -0.007     0.0103    20.5693   560.0000  33600.000    9.33333 276.791146  0.000e+00
   998.0938   0.000185    20.5703     -0.007     0.0103    20.5703   570.0000  34200.000    9.50000 276.798090  0.000e+00
   998.0938   0.000185    20.5703     -0.005     0.0103    20.5703   580.0000  34800.000    9.66667 276.805035  0.000e+00
   998.0937   0.000185    20.5710     -0.005     0.0103    20.5710   590.0000  35400.000    9.83333 276.811979  0.000e+00
   998.0936   0.000182    20.5714     -0.004     0.0103    20.5714   600.0000  36000.000   10.00000 276.818924  0.000e+00
   998.0935   0.000185    20.5718     -0.004     0.0103    20.5718   610.0000  36600.000   10.16667 276.825868  0.000e+00
   998.0934   0.000185    20.5721     -0.002     0.0103    20.5721   620.0000  37200.000   10.33333 276.832812  0.000e+00
   998.0934   0.000185    20.5721     -0.001     0.0103    20.5721   630.0000  37800.000   10.50000 276.839757  0.000e+00
   998.0934   0.000185    20.5722     -0.000     0.0103    20.5722   640.0000  38400.000   10.66667 276.846701  0.000e+00
   998.0935   0.000185    20.5719      0.001     0.0103    20.5719   650.0000  39000.000   10.83333 276.853646  0.000e+00
   998.0935   0.000185    20.5719      0.004     0.0103    20.5719   660.0000  39600.000   11.00000 276.860590  0.000e+00
   998.0936   0.000185    20.5713      0.002     0.0103    20.5713   670.0000  40200.000   11.16667 276.867535  0.000e+00
   998.0936   0.000182    20.5714      0.004     0.0103    20.5714   680.0000  40800.000   11.33333 276.874479  0.000e+00
   998.0937   0.000185    20.5711      0.005     0.0103    20.5711   690.0000  41400.000   11.50000 276.881424  0.000e+00
   998.0939   0.000185    20.5700      0.004     0.0103    20.5700   700.0000  42000.000   11.66667 276.888368  0.000e+00
   998.0941   0.000185    20.5692      0.005     0.0103    20.5692   710.0000  42600.000   11.83333 276.895312  0.000e+00
   998.0944   0.000185    20.5679      0.006     0.0103    20.5679   720.0000  43200.000   12.00000 276.902257  0.000e+00
   998.0945   0.000185    20.5673      0.004     0.0103    20.5673   730.0000  43800.000   12.16667 276.909201  0.000e+00
   998.0949   0.000185    20.5651      0.005     0.0103    20.5651   740.0000  44400.000   12.33333 276.916146  0.000e+00
   998.0951   0.000185    20.5642      0.006     0.0103    20.5642   750.0000  45000.000   12.50000 276.923090  0.000e+00
   998.0955   0.000185    20.5625      0.007     0.0103    20.5625   760.0000  45600.000   12.66667 276.930035  0.000e+00
   998.0959   0.000185    20.5609      0.009     0.0103    20.5609   770.0000  46200.000   12.83333 276.936979  0.000e+00
   998.0963   0.000185    20.5590      0.009     0.0103    20.5590   780.0000  46800.000   13.00000 276.943924  0.000e+00
   998.0967   0.000185    20.5571      0.011     0.0103    20.5571   790.0000  47400.000   13.16667 276.950868  0.000e+00
   998.0971   0.000185    20.5552      0.012     0.0103    20.5552   800.0000  48000.000   13.33333 276.957812  0.000e+00
   998.0976   0.000185    20.5528      0.012     0.0103    20.5528   810.0000  48600.000   13.50000 276.964757  0.000e+00
   998.0982   0.000185    20.5501      0.014     0.0103    20.5501   820.0000  49200.000   13.66667 276.971701  0.000e+00
   998.0986   0.000185    20.5480      0.014     0.0103    20.5480   830.0000  49800.000   13.83333 276.978646  0.000e+00
   998.0991   0.000182    20.5456      0.014     0.0103    20.5456   840.0000  50400.000   14.00000 276.985590  0.000e+00
   998.0996   0.000185    20.5433      0.015     0.0103    20.5433   850.0000  51000.000   14.16667 276.992535  0.000e+00
   998.1002   0.000185    20.5406      0.014     0.0103    20.5406   860.0000  51600.000   14.33333 276.999479  0.000e+00
   998.1007   0.000182    20.5381      0.016     0.0103    20.5381   870.0000  52200.000   14.50000 277.006424  0.000e+00
   998.1014   0.000185    20.5347      0.017     0.0103    20.5347   880.0000  52800.000   14.66667 277.013368  0.000e+00
   998.1020   0.000185    20.5320      0.019     0.0103    20.5320   890.0000  53400.000   14.83333 277.020312  0.000e+00
   998.1026   0.000185    20.5292      0.021     0.0103    20.5293   900.0000  54000.000   15.00000 277.027257  0.000e+00
   998.1032   0.000185    20.5263      0.020     0.0103    20.5263   910.0000  54600.000   15.16667 277.034201  0.000e+00
   998.1040   0.000185    20.5226      0.021     0.0103    20.5226   920.0000  55200.000   15.33333 277.041146  0.000e+00
   998.1047   0.000185    20.5196      0.022     0.0103    20.5196   930.0000  55800.000   15.50000 277.048090  0.000e+00
   998.1054   0.000185    20.5163      0.022     0.0103    20.5163   940.0000  56400.000   15.66667 277.055035  0.000e+00
   998.1061   0.000182    20.5128      0.022     0.0103    20.5128   950.0000  57000.000   15.83333 277.061979  0.000e+00
   998.1068   0.000185    20.5097      0.024     0.0103    20.5097   960.0000  57600.000   16.00000 277.068924  0.000e+00
   998.1075   0.000185    20.5063      0.025     0.0103    20.5063   970.0000  58200.000   16.16667 277.075868  0.000e+00
   998.1083   0.000185    20.5024      0.025     0.0103    20.5024   980.0000  58800.000   16.33333 277.082812  0.000e+00
   998.1090   0.000185    20.4990      0.024     0.0103    20.4990   990.0000  59400.000   16.50000 277.089757  0.000e+00
   998.1098   0.000185    20.4953      0.024     0.0103    20.4953  1000.0000  60000.000   16.66667 277.096701  0.000e+00
   998.1105   0.000185    20.4922      0.025     0.0103    20.4922  1010.0000  60600.000   16.83333 277.103646  0.000e+00
   998.1112   0.000185    20.4887      0.026     0.0103    20.4887  1020.0000  61200.000   17.00000 277.110590  0.000e+00
   998.1121   0.000185    20.4846      0.026     0.0103    20.4846  1030.0000  61800.000   17.16667 277.117535  0.000e+00
   998.1129   0.000185    20.4810      0.028     0.0103    20.4810  1040.0000  62400.000   17.33333 277.124479  0.000e+00
   998.1136   0.000185    20.4776      0.029     0.0103    20.4776  1050.0000  63000.000   17.50000 277.131424  0.000e+00
   998.1143   0.000185    20.4740      0.028     0.0103    20.4740  1060.0000  63600.000   17.66667 277.138368  0.000e+00
   998.1152   0.000185    20.4697      0.029     0.0103    20.4697  1070.0000  64200.000   17.83333 277.145312  0.000e+00
   998.1160   0.000185    20.4662      0.030     0.0103    20.4662  1080.0000  64800.000   18.00000 277.152257  0.000e+00
   998.1169   0.000185    20.4618      0.030     0.0103    20.4618  1090.0000  65400.000   18.16667 277.159201  0.000e+00
   998.1181   0.000182    20.4563      0.032     0.0103    20.4563  1100.0000  66000.000   18.33333 277.166146  0.000e+00
   998.1196   0.000185    20.4490      0.031     0.0103    20.4490  1110.0000  66600.000   18.50000 277.173090  0.000e+00
   998.1211   0.000185    20.4420      0.032     0.0103    20.4420  1120.0000  67200.000   18.66667 277.180035  0.000e+00
   998.1224   0.000185    20.4357      0.031     0.0103    20.4357  1130.0000  67800.000   18.83333 277.186979  0.000e+00
   998.1237   0.000185    20.4295      0.033     0.0103    20.4295  1140.0000  68400.000   19.00000 277.193924  0.000e+00
   998.1249   0.000185    20.4240      0.034     0.0102    20.4240  1150.0000  69000.000   19.16667 277.200868  0.000e+00
   998.1261   0.000185    20.4182      0.034     0.0102    20.4182  1160.0000  69600.000   19.33333 277.207812  0.000e+00
   998.1272   0.000185    20.4130      0.034     0.0102    20.4130  1170.0000  70200.000   19.50000 277.214757  0.000e+00
   998.1282   0.000185    20.4081      0.035     0.0102    20.4081  1180.0000  70800.000   19.66667 277.221701  0.000e+00
   998.1293   0.000185    20.4032      0.037     0.0102    20.4032  1190.0000  71400.000   19.83333 277.228646  0.000e+00
   998.1303   0.000185    20.3985      0.038     0.0102    20.3985  1200.0000  72000.000   20.00000 277.235590  0.000e+00
   998.1314   0.000185    20.3932      0.039     0.0102    20.3932  1210.0000  72600.000   20.16667 277.242535  0.000e+00
   998.1323   0.000185    20.3891      0.041     0.0102    20.3891  1220.0000  73200.000   20.33333 277.249479  0.000e+00
   998.1334   0.000185    20.3836      0.042     0.0102    20.3836  1230.0000  73800.000   20.50000 277.256424  0.000e+00
   998.1344   0.000185    20.3789      0.043     0.0102    20.3789  1240.0000  74400.000   20.66667 277.263368  0.000e+00
   998.1353   0.000184    20.3748      0.044     0.0102    20.3748  1250.0000  75000.000   20.83333 277.270312  0.000e+00
   998.1362   0.000184    20.3705      0.046     0.0102    20.3705  1260.0000  75600.000   21.00000 277.277257  0.000e+00
   998.1372   0.000184    20.3657      0.048     0.0102    20.3657  1270.0000  76200.000   21.16667 277.284201  0.000e+00
   998.1384   0.000184    20.3599      0.048     0.0102    20.3599  1280.0000  76800.000   21.33333 277.291146  0.000e+00
   998.1399   0.000184    20.3531      0.049     0.0102    20.3531  1290.0000  77400.000   21.50000 277.298090  0.000e+00
   998.1409   0.000184    20.3483      0.051     0.0102    20.3483  1300.0000  78000.000   21.66667 277.305035  0.000e+00
   998.1416   0.000184    20.3448      0.051     0.0102    20.3448  1310.0000  78600.000   21.83333 277.311979  0.000e+00
   998.1419   0.000184    20.3433      0.052     0.0102    20.3433  1320.0000  79200.000   22.00000 277.318924  0.000e+00
   998.1421   0.000184    20.3425      0.052     0.0102    20.3425  1330.0000  79800.000   22.16667 277.325868  0.000e+00
   998.1420   0.000184    20.3428      0.052     0.0102    20.3428  1340.0000  80400.000   22.33333 277.332812  0.000e+00
   998.1420   0.000184    20.3430      0.052     0.0102    20.3430  1350.0000  81000.000   22.50000 277.339757  0.000e+00
   998.1418   0.000184    20.3440      0.053     0.0102    20.3440  1360.0000  81600.000   22.66667 277.346701  0.000e+00
   998.1413   0.000184    20.3463      0.054     0.0102    20.3463  1370.0000  82200.000   22.83333 277.353646  0.000e+00
   998.1407   0.000184    20.3490      0.055     0.0102    20.3490  1380.0000  82800.000   23.00000 277.360590  0.000e+00
   998.1401   0.000187    20.3523      0.057     0.0102    20.3523  1390.0000  83400.000   23.16667 277.367535  0.000e+00
   998.1393   0.000184    20.3560      0.058     0.0102    20.3560  1400.0000  84000.000   23.33333 277.374479  0.000e+00
   998.1357   0.000184    20.3730      0.058     0.0102    20.3730  1410.0000  84600.000   23.50000 277.381424  0.000e+00
  1015.8422   3.041630    17.4237      1.430    22.4756    17.4239  1420.0000  85200.000   23.66667 277.388368  0.000e+00
  1021.7464   3.966560    17.3791      1.489    30.1916    17.3794  1430.0000  85800.000   23.83333 277.395312  0.000e+00
  1023.8493   4.290404    17.3926      1.439    32.9426    17.3928  1440.0000  86400.000   24.00000 277.402257  0.000e+00
  1023.7444   4.274708    17.3949      1.474    32.8061    17.3951  1450.0000  87000.000   24.16667 277.409201  0.000e+00
  1023.7044   4.269910    17.4047      1.467    32.7570    17.4050  1460.0000  87600.000   24.33333 277.416146  0.000e+00
  1023.6790   4.265698    17.4021      1.462    32.7230    17.4023  1470.0000  88200.000   24.50000 277.423090  0.000e+00
  1023.6614   4.264239    17.4115      1.469    32.7029    17.4118  1480.0000  88800.000   24.66667 277.430035  0.000e+00
  1023.6619   4.264517    17.4131      1.495    32.7040    17.4133  1490.0000  89400.000   24.83333 277.436979  0.000e+00
  1023.6595   4.264895    17.4187      1.456    32.7028    17.4189  1500.0000  90000.000   25.00000 277.443924  0.000e+00
  1023.6640   4.265876    17.4210      1.467    32.7093    17.4213  1510.0000  90600.000   25.16667 277.450868  0.000e+00
  1023.6698   4.266759    17.4210      1.471    32.7168    17.4213  1520.0000  91200.000   25.33333 277.457812  0.000e+00
  1023.6681   4.266420    17.4204      1.473    32.7144    17.4206  1530.0000  91800.000   25.50000 277.464757  0.000e+00
  1023.6661   4.269624    17.4472      1.461    32.7202    17.4474  1540.0000  92400.000   25.66667 277.471701  0.000e+00
  1023.6758   4.266765    17.4140      1.461    32.7226    17.4142  1550.0000  93000.000   25.83333 277.478646  0.000e+00
  1023.6768   4.270938    17.4448      1.459    32.7334    17.4450  1560.0000  93600.000   26.00000 277.485590  0.000e+00
  1023.6761   4.270201    17.4400      1.462    32.7310    17.4402  1570.0000  94200.000   26.16667 277.492535  0.000e+00
  1023.6781   4.270865    17.4427      1.463    32.7345    17.4429  1580.0000  94800.000   26.33333 277.499479  0.000e+00
  1023.6818   4.272032    17.4474      1.479    32.7407    17.4476  1590.0000  95400.000   26.50000 277.506424  0.000e+00
  1023.6761   4.269823    17.4371      1.474    32.7301    17.4373  1600.0000  96000.000   26.66667 277.513368  0.000e+00
  1023.6240   4.262826    17.4444      1.480    32.6643    17.4446  1610.0000  96600.000   26.83333 277.520312  0.000e+00
  1023.1006   4.182911    17.4448      1.477    31.9810    17.4451  1620.0000  97200.000   27.00000 277.527257  0.000e+00
  1023.0098   4.167779    17.4352      1.465    31.8595    17.4354  1630.0000  97800.000   27.16667 277.534201  0.000e+00
  1023.6953   4.272550    17.4356      1.479    32.7547    17.4358  1640.0000  98400.000   27.33333 277.541146  0.000e+00
  1023.1826   4.196497    17.4528      1.472    32.0906    17.4530  1650.0000  99000.000   27.50000 277.548090  0.000e+00
  1022.8668   4.146540    17.4405      1.477    31.6743    17.4407  1660.0000  99600.000   27.66667 277.555035  0.000e+00
  1022.0101   4.015240    17.4435      1.478    30.5560    17.4438  1670.0000 100200.000   27.83333 277.561979  0.000e+00
  1020.8644   3.838580    17.4490      1.457    29.0599    17.4492  1680.0000 100800.000   28.00000 277.568924  0.000e+00
  1021.0462   3.866939    17.4498      1.443    29.2981    17.4501  1690.0000 101400.000   28.16667 277.575868  0.000e+00
  1021.3250   3.909941    17.4481      1.464    29.6620    17.4483  1700.0000 102000.000   28.33333 277.582812  0.000e+00
  1021.4456   3.930707    17.4651      1.451    29.8248    17.4653  1710.0000 102600.000   28.50000 277.589757  0.000e+00
  1021.8891   3.998967    17.4626      1.447    30.4038    17.4628  1720.0000 103200.000   28.66667 277.596701  0.000e+00
  1022.9751   4.165690    17.4602      1.449    31.8220    17.4605  1730.0000 103800.000   28.83333 277.603646  0.000e+00
  1022.6966   4.122174    17.4539      1.443    31.4563    17.4542  1740.0000 104400.000   29.00000 277.610590  0.000e+00
  1023.5024   4.246370    17.4605      1.471    32.5106    17.4607  1750.0000 105000.000   29.16667 277.617535  0.000e+00
  1023.1154   4.187398    17.4620      1.450    32.0058    17.4622  1760.0000 105600.000   29.33333 277.624479  0.000e+00
  1023.6253   4.265465    17.4630      1.450    32.6719    17.4632  1770.0000 106200.000   29.50000 277.631424  0.000e+00
  1022.6232   4.115866    17.4930      1.449    31.3724    17.4932  1780.0000 106800.000   29.66667 277.638368  0.000e+00
  1023.4369   4.238781    17.4790      1.455    32.4309    17.4792  1790.0000 107400.000   29.83333 277.645312  0.000e+00
  1023.7422   4.281121    17.4463      1.456    32.8194    17.4466  1800.0000 108000.000   30.00000 277.652257  0.000e+00
  1023.7107   4.275464    17.4399      1.467    32.7762    17.4401  1810.0000 108600.000   30.16667 277.659201  0.000e+00
  1023.1332   4.187622    17.4425      1.453    32.0230    17.4427  1820.0000 109200.000   30.33333 277.666146  0.000e+00
  1023.0905   4.180444    17.4376      1.463    31.9656    17.4378  1830.0000 109800.000   30.50000 277.673090  0.000e+00
  1023.7495   4.281413    17.4400      1.441    32.8270    17.4403  1840.0000 110400.000   30.66667 277.680035  0.000e+00
  1023.7535   4.281300    17.4345      1.450    32.8305    17.4348  1850.0000 111000.000   30.83333 277.686979  0.000e+00
  1023.5611   4.251846    17.4337      1.449    32.5790    17.4339  1860.0000 111600.000   31.00000 277.693924  0.000e+00
  1023.6961   4.270792    17.4211      1.451    32.7513    17.4213  1870.0000 112200.000   31.16667 277.700868  0.000e+00
  1023.7632   4.279707    17.4110      1.437    32.8359    17.4112  1880.0000 112800.000   31.33333 277.707812  0.000e+00
  1023.7621   4.281354    17.4249      1.440    32.8388    17.4251  1890.0000 113400.000   31.50000 277.714757  0.000e+00
  1023.5219   4.244233    17.4210      1.436    32.5240    17.4213  1900.0000 114000.000   31.66667 277.721701  0.000e+00
  1023.7587   4.280258    17.4204      1.426    32.8330    17.4206  1910.0000 114600.000   31.83333 277.728646  0.000e+00
  1023.3452   4.218000    17.4267      1.438    32.2951    17.4269  1920.0000 115200.000   32.00000 277.735590  0.000e+00
  1023.7554   4.277927    17.4065      1.437    32.8243    17.4067  1930.0000 115800.000   32.16667 277.742535  0.000e+00
  1023.7719   4.282456    17.4220      1.445    32.8506    17.4222  1940.0000 116400.000   32.33333 277.749479  0.000e+00
  1023.7806   4.280929    17.4002      1.445    32.8551    17.4004  1950.0000 117000.000   32.50000 277.756424  0.000e+00
  1023.7536   4.276274    17.3959      1.437    32.8187    17.3962  1960.0000 117600.000   32.66667 277.763368  0.000e+00
  1023.6471   4.262077    17.4115      1.454    32.6844    17.4118  1970.0000 118200.000   32.83333 277.770312  0.000e+00
  1023.6369   4.260619    17.4122      1.441    32.6713    17.4125  1980.0000 118800.000   33.00000 277.777257  0.000e+00
  1023.6275   4.257246    17.3973      1.446    32.6545    17.3976  1990.0000 119400.000   33.16667 277.784201  0.000e+00
  1023.3440   4.213308    17.3918      1.434    32.2827    17.3921  2000.0000 120000.000   33.33333 277.791146  0.000e+00
  1023.7874   4.280305    17.3875      1.448    32.8601    17.3877  2010.0000 120600.000   33.50000 277.798090  0.000e+00
  1023.5249   4.238365    17.3722      1.432    32.5129    17.3725  2020.0000 121200.000   33.66667 277.805035  0.000e+00
  1023.7488   4.273467    17.3801      1.442    32.8075    17.3803  2030.0000 121800.000   33.83333 277.811979  0.000e+00
  1022.9796   4.156062    17.3797      1.439    31.8031    17.3800  2040.0000 122400.000   34.00000 277.818924  0.000e+00
  1023.2160   4.191493    17.3742      1.442    32.1101    17.3745  2050.0000 123000.000   34.16667 277.825868  0.000e+00
  1023.7134   4.266175    17.3655      1.437    32.7568    17.3657  2060.0000 123600.000   34.33333 277.832812  0.000e+00
  1023.7873   4.279528    17.3816      1.437    32.8582    17.3819  2070.0000 124200.000   34.50000 277.839757  0.000e+00
  1023.7883   4.278910    17.3757      1.449    32.8577    17.3760  2080.0000 124800.000   34.66667 277.846701  0.000e+00
  1023.7941   4.278545    17.3662      1.435    32.8623    17.3664  2090.0000 125400.000   34.83333 277.853646  0.000e+00
  1023.7941   4.279063    17.3701      1.434    32.8636    17.3703  2100.0000 126000.000   35.00000 277.860590  0.000e+00
  1023.7943   4.279229    17.3712      1.445    32.8641    17.3714  2110.0000 126600.000   35.16667 277.867535  0.000e+00
  1023.7966   4.278572    17.3635      1.433    32.8647    17.3637  2120.0000 127200.000   35.33333 277.874479  0.000e+00
  1023.7999   4.277503    17.3515      1.449    32.8653    17.3517  2130.0000 127800.000   35.50000 277.881424  0.000e+00
  1023.8008   4.276958    17.3462      1.431    32.8649    17.3465  2140.0000 128400.000   35.66667 277.888368  0.000e+00
  1023.8012   4.276388    17.3414      1.444    32.8639    17.3416  2150.0000 129000.000   35.83333 277.895312  0.000e+00
  1023.8052   4.275445    17.3295      1.428    32.8655    17.3297  2160.0000 129600.000   36.00000 277.902257  0.000e+00
  1023.8059   4.274688    17.3230      1.439    32.8643    17.3232  2170.0000 130200.000   36.16667 277.909201  0.000e+00
  1023.8065   4.274463    17.3204      1.398    32.8645    17.3206  2180.0000 130800.000   36.33333 277.916146  0.000e+00
  1023.8045   4.274861    17.3258      1.436    32.8634    17.3261  2190.0000 131400.000   36.50000 277.923090  0.000e+00
  1023.8052   4.274735    17.3240      1.411    32.8638    17.3242  2200.0000 132000.000   36.66667 277.930035  0.000e+00
  1023.8027   4.274715    17.3268      1.434    32.8614    17.3270  2210.0000 132600.000   36.83333 277.936979  0.000e+00
  1023.8027   4.274277    17.3234      1.419    32.8604    17.3236  2220.0000 133200.000   37.00000 277.943924  0.000e+00
  1023.8033   4.272525    17.3093      1.426    32.8568    17.3096  2230.0000 133800.000   37.16667 277.950868  0.000e+00
  1023.8049   4.271085    17.2964      1.435    32.8549    17.2967  2240.0000 134400.000   37.33333 277.957812  0.000e+00
  1023.8092   4.270979    17.2905      1.405    32.8588    17.2908  2250.0000 135000.000   37.50000 277.964757  0.000e+00
  1023.8057   4.271596    17.2994      1.418    32.8569    17.2996  2260.0000 135600.000   37.66667 277.971701  0.000e+00
  1023.8066   4.270866    17.2928      1.425    32.8560    17.2930  2270.0000 136200.000   37.83333 277.978646  0.000e+00
  1023.8106   4.269805    17.2800      1.408    32.8573    17.2802  2280.0000 136800.000   38.00000 277.985590  0.000e+00
  1023.8091   4.270262    17.2852      1.425    32.8569    17.2855  2290.0000 137400.000   38.16667 277.992535  0.000e+00
  1023.8151   4.268883    17.2677      1.443    32.8593    17.2680  2300.0000 138000.000   38.33333 277.999479  0.000e+00
  1023.8149   4.270607    17.2812      1.422    32.8632    17.2814  2310.0000 138600.000   38.50000 278.006424  0.000e+00
  1023.8183   4.270528    17.2765      1.411    32.8663    17.2767  2320.0000 139200.000   38.66667 278.013368  0.000e+00
  1023.8240   4.269221    17.2599      1.409    32.8686    17.2601  2330.0000 139800.000   38.83333 278.020312  0.000e+00
  1023.8243   4.268843    17.2565      1.393    32.8681    17.2567  2340.0000 140400.000   39.00000 278.027257  0.000e+00
  1023.8294   4.268233    17.2460      1.406    32.8713    17.2463  2350.0000 141000.000   39.16667 278.034201  0.000e+00
  1023.8313   4.267589    17.2388      1.411    32.8717    17.2391  2360.0000 141600.000   39.33333 278.041146  0.000e+00
  1023.8316   4.267052    17.2344      1.422    32.8706    17.2347  2370.0000 142200.000   39.50000 278.048090  0.000e+00
  1023.8256   4.268140    17.2497      1.417    32.8675    17.2500  2380.0000 142800.000   39.66667 278.055035  0.000e+00
  1023.8334   4.267404    17.2349      1.388    32.8733    17.2351  2390.0000 143400.000   39.83333 278.061979  0.000e+00
  1023.8330   4.267709    17.2379      1.428    32.8734    17.2381  2400.0000 144000.000   40.00000 278.068924  0.000e+00
  1023.8365   4.266893    17.2274      1.411    32.8749    17.2277  2410.0000 144600.000   40.16667 278.075868  0.000e+00
  1023.8369   4.266992    17.2279      1.420    32.8754    17.2281  2420.0000 145200.000   40.33333 278.082812  0.000e+00
  1023.8390   4.266575    17.2221      1.407    32.8766    17.2223  2430.0000 145800.000   40.50000 278.089757  0.000e+00
  1023.8388   4.267006    17.2256      1.396    32.8774    17.2259  2440.0000 146400.000   40.66667 278.096701  0.000e+00
  1023.8372   4.265514    17.2161      1.420    32.8723    17.2164  2450.0000 147000.000   40.83333 278.103646  0.000e+00
  1023.8338   4.266270    17.2258      1.408    32.8709    17.2260  2460.0000 147600.000   41.00000 278.110590  0.000e+00
  1023.8374   4.268777    17.2409      1.424    32.8802    17.2412  2470.0000 148200.000   41.16667 278.117535  0.000e+00
  1023.8369   4.266415    17.2235      1.432    32.8741    17.2237  2480.0000 148800.000   41.33333 278.124479  0.000e+00
  1023.8417   4.263723    17.1970      1.403    32.8724    17.1973  2490.0000 149400.000   41.50000 278.131424  0.000e+00
  1023.8404   4.265381    17.2114      1.421    32.8750    17.2116  2500.0000 150000.000   41.66667 278.138368  0.000e+00
  1023.8451   4.263697    17.1930      1.411    32.8755    17.1932  2510.0000 150600.000   41.83333 278.145312  0.000e+00
  1023.8426   4.265633    17.2108      1.411    32.8777    17.2110  2520.0000 151200.000   42.00000 278.152257  0.000e+00
  1023.8428   4.263399    17.1933      1.418    32.8726    17.1936  2530.0000 151800.000   42.16667 278.159201  0.000e+00
  1023.8409   4.263233    17.1942      1.391    32.8705    17.1944  2540.0000 152400.000   42.33333 278.166146  0.000e+00
  1023.8401   4.258427    17.1582      1.408    32.8584    17.1585  2550.0000 153000.000   42.50000 278.173090  0.000e+00
  1023.8351   4.261151    17.1850      1.412    32.8600    17.1853  2560.0000 153600.000   42.66667 278.180035  0.000e+00
  1023.8391   4.256883    17.1477      1.437    32.8536    17.1480  2570.0000 154200.000   42.83333 278.186979  0.000e+00
  1023.8299   4.257712    17.1648      1.438    32.8468    17.1650  2580.0000 154800.000   43.00000 278.193924  0.000e+00
  1023.8321   4.258984    17.1719      1.428    32.8520    17.1722  2590.0000 155400.000   43.16667 278.200868  0.000e+00
  1023.8317   4.254532    17.1382      1.421    32.8411    17.1384  2600.0000 156000.000   43.33333 278.207812  0.000e+00
  1023.8301   4.254664    17.1410      1.406    32.8399    17.1413  2610.0000 156600.000   43.50000 278.214757  0.000e+00
  1023.8287   4.255134    17.1464      1.446    32.8396    17.1466  2620.0000 157200.000   43.66667 278.221701  0.000e+00
  1023.8268   4.253962    17.1395      1.420    32.8351    17.1397  2630.0000 157800.000   43.83333 278.228646  0.000e+00
  1023.8304   4.256300    17.1532      1.419    32.8441    17.1535  2640.0000 158400.000   44.00000 278.235590  0.000e+00
  1023.8370   4.253512    17.1242      1.435    32.8436    17.1245  2650.0000 159000.000   44.16667 278.242535  0.000e+00
  1023.8347   4.255293    17.1406      1.426    32.8457    17.1408  2660.0000 159600.000   44.33333 278.249479  0.000e+00
  1023.8329   4.257268    17.1578      1.418    32.8487    17.1580  2670.0000 160200.000   44.50000 278.256424  0.000e+00
  1023.8397   4.257877    17.1546      1.424    32.8566    17.1549  2680.0000 160800.000   44.66667 278.263368  0.000e+00
  1023.8490   4.251022    17.0911      1.418    32.8492    17.0913  2690.0000 161400.000   44.83333 278.270312  0.000e+00
  1023.8432   4.254028    17.1210      1.435    32.8508    17.1212  2700.0000 162000.000   45.00000 278.277257  0.000e+00
  1023.8457   4.252565    17.1068      1.431    32.8497    17.1070  2710.0000 162600.000   45.16667 278.284201  0.000e+00
  1023.8430   4.252737    17.1113      1.439    32.8475    17.1115  2720.0000 163200.000   45.33333 278.291146  0.000e+00
  1023.8415   4.254763    17.1286      1.432    32.8509    17.1289  2730.0000 163800.000   45.50000 278.298090  0.000e+00
  1023.8421   4.255399    17.1329      1.452    32.8528    17.1332  2740.0000 164400.000   45.66667 278.305035  0.000e+00
  1023.8418   4.256691    17.1432      1.461    32.8556    17.1434  2750.0000 165000.000   45.83333 278.311979  0.000e+00
  1023.8403   4.255896    17.1386      1.424    32.8525    17.1388  2760.0000 165600.000   46.00000 278.318924  0.000e+00
  1023.8390   4.254737    17.1314      1.441    32.8484    17.1316  2770.0000 166200.000   46.16667 278.325868  0.000e+00
  1023.8331   4.254353    17.1353      1.446    32.8419    17.1355  2780.0000 166800.000   46.33333 278.332812  0.000e+00
  1023.8358   4.256651    17.1498      1.441    32.8499    17.1500  2790.0000 167400.000   46.50000 278.339757  0.000e+00
  1023.8338   4.257235    17.1566      1.440    32.8494    17.1568  2800.0000 168000.000   46.66667 278.346701  0.000e+00
  1023.8408   4.255631    17.1362      1.458    32.8522    17.1364  2810.0000 168600.000   46.83333 278.353646  0.000e+00
  1023.8373   4.257579    17.1552      1.441    32.8535    17.1555  2820.0000 169200.000   47.00000 278.360590  0.000e+00
  1023.8338   4.259348    17.1729      1.455    32.8544    17.1731  2830.0000 169800.000   47.16667 278.367535  0.000e+00
  1023.8345   4.257884    17.1608      1.452    32.8516    17.1611  2840.0000 170400.000   47.33333 278.374479  0.000e+00
  1023.8333   4.256910    17.1548      1.456    32.8481    17.1550  2850.0000 171000.000   47.50000 278.381424  0.000e+00
  1023.8310   4.256188    17.1519      1.463    32.8442    17.1522  2860.0000 171600.000   47.66667 278.388368  0.000e+00
  1023.8326   4.255982    17.1485      1.468    32.8452    17.1487  2870.0000 172200.000   47.83333 278.395312  0.000e+00
  1023.8284   4.257950    17.1685      1.459    32.8459    17.1687  2880.0000 172800.000   48.00000 278.402257  0.000e+00
  1023.8231   4.258407    17.1782      1.466    32.8419    17.1785  2890.0000 173400.000   48.16667 278.409201  0.000e+00
  1023.8197   4.258758    17.1849      1.469    32.8395    17.1851  2900.0000 174000.000   48.33333 278.416146  0.000e+00
  1023.8137   4.260674    17.2065      1.458    32.8384    17.2068  2910.0000 174600.000   48.50000 278.423090  0.000e+00
  1023.8136   4.260501    17.2054      1.480    32.8378    17.2056  2920.0000 175200.000   48.66667 278.430035  0.000e+00
  1023.8158   4.259878    17.1980      1.472    32.8385    17.1982  2930.0000 175800.000   48.83333 278.436979  0.000e+00
  1023.8145   4.256890    17.1765      1.461    32.8302    17.1767  2940.0000 176400.000   49.00000 278.443924  0.000e+00
  1023.8088   4.259395    17.2023      1.450    32.8308    17.2025  2950.0000 177000.000   49.16667 278.450868  0.000e+00
  1023.8152   4.258367    17.1870      1.459    32.8344    17.1873  2960.0000 177600.000   49.33333 278.457812  0.000e+00
  1023.8068   4.268989    17.2784      1.487    32.8515    17.2786  2970.0000 178200.000   49.50000 278.464757  0.000e+00
  1023.8068   4.267523    17.2670      1.462    32.8481    17.2673  2980.0000 178800.000   49.66667 278.471701  0.000e+00
  1023.8042   4.271032    17.2970      1.458    32.8539    17.2973  2990.0000 179400.000   49.83333 278.478646  0.000e+00
  1023.7978   4.271894    17.3110      1.451    32.8500    17.3112  3000.0000 180000.000   50.00000 278.485590  0.000e+00
  1023.7963   4.272074    17.3143      1.473    32.8489    17.3145  3010.0000 180600.000   50.16667 278.492535  0.000e+00
  1023.7924   4.273255    17.3278      1.465    32.8480    17.3281  3020.0000 181200.000   50.33333 278.499479  0.000e+00
  1023.7969   4.276553    17.3479      1.473    32.8600    17.3481  3030.0000 181800.000   50.50000 278.506424  0.000e+00
  1023.7920   4.278538    17.3686      1.450    32.8603    17.3688  3040.0000 182400.000   50.66667 278.513368  0.000e+00
  1023.7931   4.279136    17.3721      1.488    32.8626    17.3723  3050.0000 183000.000   50.83333 278.520312  0.000e+00
  1023.7927   4.278538    17.3679      1.477    32.8608    17.3681  3060.0000 183600.000   51.00000 278.527257  0.000e+00
  1023.7928   4.278027    17.3639      1.469    32.8597    17.3641  3070.0000 184200.000   51.16667 278.534201  0.000e+00
  1023.7941   4.277310    17.3570      1.494    32.8591    17.3573  3080.0000 184800.000   51.33333 278.541146  0.000e+00
  1023.7948   4.275664    17.3435      1.479    32.8559    17.3438  3090.0000 185400.000   51.50000 278.548090  0.000e+00
  1023.7931   4.277655    17.3608      1.485    32.8590    17.3610  3100.0000 186000.000   51.66667 278.555035  0.000e+00
  1023.7930   4.279229    17.3728      1.477    32.8627    17.3731  3110.0000 186600.000   51.83333 278.561979  0.000e+00
  1023.7912   4.279641    17.3781      1.461    32.8620    17.3783  3120.0000 187200.000   52.00000 278.568924  0.000e+00
  1023.7932   4.280218    17.3801      1.442    32.8654    17.3803  3130.0000 187800.000   52.16667 278.575868  0.000e+00
  1023.7944   4.280471    17.3805      1.425    32.8672    17.3807  3140.0000 188400.000   52.33333 278.582812  0.000e+00
  1023.7930   4.281261    17.3883      1.468    32.8676    17.3886  3150.0000 189000.000   52.50000 278.589757  0.000e+00
  1023.7938   4.281168    17.3868      1.477    32.8681    17.3870  3160.0000 189600.000   52.66667 278.596701  0.000e+00
  1023.7968   4.285227    17.4143      1.489    32.8805    17.4145  3170.0000 190200.000   52.83333 278.603646  0.000e+00
  1023.7965   4.283732    17.4032      1.484    32.8767    17.4035  3180.0000 190800.000   53.00000 278.610590  0.000e+00
  1023.7950   4.282450    17.3951      1.475    32.8723    17.3954  3190.0000 191400.000   53.16667 278.617535  0.000e+00
  1023.7953   4.283141    17.4001      1.485    32.8742    17.4003  3200.0000 192000.000   53.33333 278.624479  0.000e+00
  1023.7949   4.283201    17.4010      1.476    32.8740    17.4012  3210.0000 192600.000   53.50000 278.631424  0.000e+00
  1023.8004   4.282158    17.3866      1.462    32.8767    17.3868  3220.0000 193200.000   53.66667 278.638368  0.000e+00
  1023.7974   4.282191    17.3904      1.474    32.8739    17.3907  3230.0000 193800.000   53.83333 278.645312  0.000e+00
  1023.7987   4.281786    17.3858      1.487    32.8741    17.3861  3240.0000 194400.000   54.00000 278.652257  0.000e+00
  1023.8006   4.280677    17.3751      1.472    32.8733    17.3754  3250.0000 195000.000   54.16667 278.659201  0.000e+00
  1023.8005   4.280159    17.3712      1.472    32.8721    17.3714  3260.0000 195600.000   54.33333 278.666146  0.000e+00
  1023.8017   4.279940    17.3681      1.477    32.8726    17.3684  3270.0000 196200.000   54.50000 278.673090  0.000e+00
  1023.8057   4.278067    17.3492      1.475    32.8720    17.3494  3280.0000 196800.000   54.66667 278.680035  0.000e+00
  1023.8043   4.278751    17.3560      1.466    32.8723    17.3562  3290.0000 197400.000   54.83333 278.686979  0.000e+00
  1023.8072   4.277961    17.3466      1.474    32.8732    17.3468  3300.0000 198000.000   55.00000 278.693924  0.000e+00
  1023.8071   4.277138    17.3404      1.473    32.8711    17.3407  3310.0000 198600.000   55.16667 278.700868  0.000e+00
  1023.8057   4.277722    17.3466      1.488    32.8711    17.3468  3320.0000 199200.000   55.33333 278.707812  0.000e+00
  1023.8078   4.277025    17.3388      1.463    32.8715    17.3390  3330.0000 199800.000   55.50000 278.714757  0.000e+00
  1023.8083   4.276593    17.3349      1.470    32.8710    17.3351  3340.0000 200400.000   55.66667 278.721701  0.000e+00
  1023.8107   4.275438    17.3233      1.481    32.8704    17.3236  3350.0000 201000.000   55.83333 278.728646  0.000e+00
  1022.7005   4.106574    17.3276      1.680    31.4213    17.3279  3360.0000 201600.000   56.00000 278.735590  0.000e+00
  1022.5945   4.089810    17.3234      1.677    31.2816    17.3236  3370.0000 202200.000   56.16667 278.742535  0.000e+00
  1023.0882   4.164077    17.3138      1.674    31.9233    17.3141  3380.0000 202800.000   56.33333 278.749479  0.000e+00
  1023.8107   4.275332    17.3234      1.676    32.8694    17.3236  3390.0000 203400.000   56.50000 278.756424  0.000e+00
  1023.4081   4.212834    17.3137      1.670    32.3409    17.3140  3400.0000 204000.000   56.66667 278.763368  0.000e+00
  1021.5772   3.931266    17.3055      1.680    29.9470    17.3058  3410.0000 204600.000   56.83333 278.770312  0.000e+00
  1023.1576   4.172780    17.2991      1.666    32.0095    17.2993  3420.0000 205200.000   57.00000 278.777257  0.000e+00
  1023.2353   4.186162    17.3110      1.678    32.1145    17.3113  3430.0000 205800.000   57.16667 278.784201  0.000e+00
  1022.9210   4.138064    17.3101      1.675    31.7038    17.3104  3440.0000 206400.000   57.33333 278.791146  0.000e+00
  1023.8142   4.273793    17.3076      1.677    32.8690    17.3078  3450.0000 207000.000   57.50000 278.798090  0.000e+00
  1023.8149   4.274045    17.3086      1.670    32.8703    17.3089  3460.0000 207600.000   57.66667 278.805035  0.000e+00
  1023.8069   4.272107    17.3031      1.674    32.8582    17.3033  3470.0000 208200.000   57.83333 278.811979  0.000e+00
  1023.8159   4.273507    17.3033      1.674    32.8700    17.3036  3480.0000 208800.000   58.00000 278.818924  0.000e+00
  1023.8163   4.273368    17.3018      1.682    32.8700    17.3021  3490.0000 209400.000   58.16667 278.825868  0.000e+00
  1023.8180   4.272777    17.2953      1.672    32.8702    17.2956  3500.0000 210000.000   58.33333 278.832812  0.000e+00
  1023.8171   4.273089    17.2988      1.680    32.8700    17.2991  3510.0000 210600.000   58.50000 278.839757  0.000e+00
  1023.8169   4.273069    17.2988      1.669    32.8699    17.2991  3520.0000 211200.000   58.66667 278.846701  0.000e+00
  1023.4160   4.211943    17.2975      1.673    32.3462    17.2978  3530.0000 211800.000   58.83333 278.853646  0.000e+00
  1023.8156   4.273222    17.3015      1.675    32.8690    17.3018  3540.0000 212400.000   59.00000 278.860590  0.000e+00
  1023.7790   4.267960    17.3038      1.676    32.8220    17.3040  3550.0000 213000.000   59.16667 278.867535  0.000e+00
  1023.6609   4.249523    17.3000      1.678    32.6666    17.3003  3560.0000 213600.000   59.33333 278.874479  0.000e+00
  1023.8163   4.271968    17.2911      1.670    32.8667    17.2914  3570.0000 214200.000   59.50000 278.881424  0.000e+00
  1023.8164   4.272671    17.2964      1.671    32.8684    17.2967  3580.0000 214800.000   59.66667 278.888368  0.000e+00
  1023.8168   4.272618    17.2954      1.669    32.8688    17.2957  3590.0000 215400.000   59.83333 278.895312  0.000e+00
  1023.8162   4.272153    17.2927      1.672    32.8670    17.2929  3600.0000 216000.000   60.00000 278.902257  0.000e+00
  1023.8169   4.271769    17.2889      1.680    32.8667    17.2892  3610.0000 216600.000   60.16667 278.909201  0.000e+00
  1023.8173   4.271331    17.2850      1.674    32.8661    17.2853  3620.0000 217200.000   60.33333 278.916146  0.000e+00
  1023.8159   4.269526    17.2729      1.686    32.8605    17.2732  3630.0000 217800.000   60.50000 278.923090  0.000e+00
  1023.7946   4.268644    17.2908      1.678    32.8383    17.2911  3640.0000 218400.000   60.66667 278.930035  0.000e+00
  1023.7964   4.270309    17.3016      1.679    32.8439    17.3019  3650.0000 219000.000   60.83333 278.936979  0.000e+00
  1023.8059   4.270733    17.2938      1.674    32.8539    17.2941  3660.0000 219600.000   61.00000 278.943924  0.000e+00
  1023.7953   4.272638    17.3207      1.687    32.8484    17.3209  3670.0000 220200.000   61.16667 278.950868  0.000e+00
  1023.7957   4.273600    17.3276      1.676    32.8510    17.3279  3680.0000 220800.000   61.33333 278.957812  0.000e+00
  1023.7830   4.269871    17.3138      1.677    32.8302    17.3141  3690.0000 221400.000   61.50000 278.964757  0.000e+00
  1023.7797   4.266541    17.2920      1.674    32.8193    17.2923  3700.0000 222000.000   61.66667 278.971701  0.000e+00
  1023.8009   4.270362    17.2967      1.668    32.8483    17.2970  3710.0000 222600.000   61.83333 278.978646  0.000e+00
  1023.8043   4.270037    17.2903      1.682    32.8507    17.2906  3720.0000 223200.000   62.00000 278.985590  0.000e+00
  1023.8037   4.270269    17.2928      1.688    32.8507    17.2931  3730.0000 223800.000   62.16667 278.992535  0.000e+00
  1023.8053   4.269970    17.2886      1.664    32.8516    17.2889  3740.0000 224400.000   62.33333 278.999479  0.000e+00
  1023.8033   4.267510    17.2721      1.678    32.8438    17.2724  3750.0000 225000.000   62.50000 279.006424  0.000e+00
  1023.8014   4.266608    17.2674      1.677    32.8399    17.2676  3760.0000 225600.000   62.66667 279.013368  0.000e+00
  1023.7958   4.267914    17.2838      1.670    32.8378    17.2841  3770.0000 226200.000   62.83333 279.020312  0.000e+00
  1023.7821   4.265878    17.2842      1.672    32.8199    17.2845  3780.0000 226800.000   63.00000 279.027257  0.000e+00
  1023.7783   4.265632    17.2867      1.649    32.8158    17.2869  3790.0000 227400.000   63.16667 279.034201  0.000e+00
  1023.7821   4.264028    17.2700      1.649    32.8156    17.2702  3800.0000 228000.000   63.33333 279.041146  0.000e+00
  1023.7941   4.266064    17.2716      1.667    32.8318    17.2719  3810.0000 228600.000   63.50000 279.048090  0.000e+00
  1023.7844   4.263345    17.2619      1.639    32.8163    17.2622  3820.0000 229200.000   63.66667 279.055035  0.000e+00
  1023.7772   4.260773    17.2507      1.665    32.8033    17.2509  3830.0000 229800.000   63.83333 279.061979  0.000e+00
  1023.7836   4.262762    17.2584      1.640    32.8141    17.2587  3840.0000 230400.000   64.00000 279.068924  0.000e+00
  1023.7800   4.259805    17.2399      1.647    32.8037    17.2402  3850.0000 231000.000   64.16667 279.075868  0.000e+00
  1023.7812   4.253908    17.1934      1.672    32.7907    17.1936  3860.0000 231600.000   64.33333 279.082812  0.000e+00
  1023.7784   4.256465    17.2162      1.649    32.7942    17.2164  3870.0000 232200.000   64.50000 279.089757  0.000e+00
  1023.7833   4.260103    17.2384      1.636    32.8075    17.2386  3880.0000 232800.000   64.66667 279.096701  0.000e+00
  1023.7847   4.261012    17.2437      1.647    32.8110    17.2440  3890.0000 233400.000   64.83333 279.103646  0.000e+00
  1023.7694   4.252835    17.1988      1.674    32.7771    17.1991  3900.0000 234000.000   65.00000 279.110590  0.000e+00
  1023.7938   4.264877    17.2629      1.667    32.8287    17.2631  3910.0000 234600.000   65.16667 279.117535  0.000e+00
  1023.7859   4.260070    17.2350      1.641    32.8100    17.2353  3920.0000 235200.000   65.33333 279.124479  0.000e+00
  1023.7824   4.257618    17.2203      1.639    32.8008    17.2206  3930.0000 235800.000   65.50000 279.131424  0.000e+00
  1023.7813   4.257135    17.2180      1.654    32.7985    17.2183  3940.0000 236400.000   65.66667 279.138368  0.000e+00
  1023.7810   4.257082    17.2178      1.638    32.7982    17.2181  3950.0000 237000.000   65.83333 279.145312  0.000e+00
  1023.7843   4.258003    17.2210      1.623    32.8035    17.2213  3960.0000 237600.000   66.00000 279.152257  0.000e+00
  1023.7785   4.255333    17.2073      1.634    32.7917    17.2075  3970.0000 238200.000   66.16667 279.159201  0.000e+00
  1023.7836   4.257035    17.2144      1.629    32.8006    17.2146  3980.0000 238800.000   66.33333 279.166146  0.000e+00
  1023.7838   4.258148    17.2227      1.611    32.8035    17.2229  3990.0000 239400.000   66.50000 279.173090  0.000e+00
  1023.7785   4.254485    17.2007      1.620    32.7897    17.2010  4000.0000 240000.000   66.66667 279.180035  0.000e+00
  1023.7872   4.260461    17.2365      1.625    32.8121    17.2367  4010.0000 240600.000   66.83333 279.186979  0.000e+00
  1023.7850   4.259295    17.2302      1.633    32.8072    17.2304  4020.0000 241200.000   67.00000 279.193924  0.000e+00
  1023.7789   4.257148    17.2208      1.652    32.7963    17.2211  4030.0000 241800.000   67.16667 279.200868  0.000e+00
  1023.7882   4.260203    17.2333      1.621    32.8125    17.2335  4040.0000 242400.000   67.33333 279.207812  0.000e+00
  1023.7951   4.262967    17.2466      1.644    32.8255    17.2469  4050.0000 243000.000   67.50000 279.214757  0.000e+00
  1023.7953   4.263173    17.2479      1.640    32.8262    17.2482  4060.0000 243600.000   67.66667 279.221701  0.000e+00
  1023.7993   4.265056    17.2577      1.636    32.8344    17.2579  4070.0000 244200.000   67.83333 279.228646  0.000e+00
  1023.7893   4.260150    17.2316      1.618    32.8135    17.2318  4080.0000 244800.000   68.00000 279.235590  0.000e+00
  1023.7902   4.260362    17.2321      1.599    32.8149    17.2323  4090.0000 245400.000   68.16667 279.242535  0.000e+00
  1023.7827   4.255803    17.2058      1.600    32.7970    17.2061  4100.0000 246000.000   68.33333 279.249479  0.000e+00
  1023.7383   4.239736    17.1340      1.619    32.7168    17.1343  4110.0000 246600.000   68.50000 279.256424  0.000e+00
  1023.7627   4.249551    17.1811      1.622    32.7632    17.1814  4120.0000 247200.000   68.66667 279.263368  0.000e+00
  1023.7747   4.256499    17.2206      1.624    32.7910    17.2208  4130.0000 247800.000   68.83333 279.270312  0.000e+00
  1023.7969   4.265739    17.2656      1.625    32.8338    17.2659  4140.0000 248400.000   69.00000 279.277257  0.000e+00
  1023.7667   4.248518    17.1685      1.634    32.7645    17.1688  4150.0000 249000.000   69.16667 279.284201  0.000e+00
  1023.7702   4.250551    17.1801      1.628    32.7726    17.1804  4160.0000 249600.000   69.33333 279.291146  0.000e+00
  1023.7680   4.248703    17.1685      1.628    32.7661    17.1687  4170.0000 250200.000   69.50000 279.298090  0.000e+00
  1023.7839   4.258268    17.2234      1.620    32.8039    17.2237  4180.0000 250800.000   69.66667 279.305035  0.000e+00
  1023.7846   4.257791    17.2190      1.634    32.8033    17.2193  4190.0000 251400.000   69.83333 279.311979  0.000e+00
  1023.7856   4.257585    17.2163      1.619    32.8038    17.2165  4200.0000 252000.000   70.00000 279.318924  0.000e+00
  1023.7791   4.254597    17.2009      1.628    32.7906    17.2012  4210.0000 252600.000   70.16667 279.325868  0.000e+00
  1023.7803   4.252928    17.1867      1.627    32.7878    17.1869  4220.0000 253200.000   70.33333 279.332812  0.000e+00
  1023.7626   4.247770    17.1676      1.620    32.7588    17.1679  4230.0000 253800.000   70.50000 279.339757  0.000e+00
  1023.7731   4.250557    17.1768      1.622    32.7753    17.1771  4240.0000 254400.000   70.66667 279.346701  0.000e+00
  1023.7833   4.255929    17.2062      1.623    32.7977    17.2065  4250.0000 255000.000   70.83333 279.353646  0.000e+00
  1023.7843   4.256346    17.2082      1.619    32.7997    17.2085  4260.0000 255600.000   71.00000 279.360590  0.000e+00
  1023.7836   4.256181    17.2077      1.619    32.7987    17.2080  4270.0000 256200.000   71.16667 279.367535  0.000e+00
  1023.7829   4.256061    17.2077      1.625    32.7976    17.2080  4280.0000 256800.000   71.33333 279.374479  0.000e+00
  1023.7852   4.257559    17.2165      1.627    32.8034    17.2168  4290.0000 257400.000   71.50000 279.381424  0.000e+00
  1023.7878   4.258838    17.2233      1.625    32.8089    17.2235  4300.0000 258000.000   71.66667 279.388368  0.000e+00
  1023.7862   4.258208    17.2203      1.627    32.8059    17.2206  4310.0000 258600.000   71.83333 279.395312  0.000e+00
  1023.7821   4.257075    17.2164      1.632    32.7993    17.2167  4320.0000 259200.000   72.00000 279.402257  0.000e+00
  1023.7841   4.258069    17.2215      1.594    32.8037    17.2218  4330.0000 259800.000   72.16667 279.409201  0.000e+00
  1023.7893   4.260388    17.2333      1.596    32.8141    17.2335  4340.0000 260400.000   72.33333 279.416146  0.000e+00
  1023.7890   4.258679    17.2206      1.601    32.8097    17.2208  4350.0000 261000.000   72.50000 279.423090  0.000e+00
  1023.7803   4.255922    17.2095      1.611    32.7950    17.2098  4360.0000 261600.000   72.66667 279.430035  0.000e+00
  1023.7779   4.253537    17.1942      1.628    32.7869    17.1944  4370.0000 262200.000   72.83333 279.436979  0.000e+00
  1023.7760   4.252021    17.1846      1.618    32.7816    17.1848  4380.0000 262800.000   73.00000 279.443924  0.000e+00
  1023.7720   4.250325    17.1763      1.628    32.7738    17.1766  4390.0000 263400.000   73.16667 279.450868  0.000e+00
  1023.7724   4.252888    17.1955      1.628    32.7802    17.1958  4400.0000 264000.000   73.33333 279.457812  0.000e+00
  1023.7745   4.254531    17.2057      1.618    32.7861    17.2060  4410.0000 264600.000   73.50000 279.464757  0.000e+00
  1023.7731   4.255048    17.2112      1.600    32.7861    17.2114  4420.0000 265200.000   73.66667 279.471701  0.000e+00
  1023.7722   4.254657    17.2094      1.621    32.7842    17.2096  4430.0000 265800.000   73.83333 279.478646  0.000e+00
  1023.7730   4.254538    17.2075      1.611    32.7847    17.2077  4440.0000 266400.000   74.00000 279.485590  0.000e+00
  1023.7702   4.254796    17.2126      1.607    32.7828    17.2129  4450.0000 267000.000   74.16667 279.492535  0.000e+00
  1023.7708   4.256260    17.2233      1.628    32.7867    17.2236  4460.0000 267600.000   74.33333 279.499479  0.000e+00
  1023.7721   4.256631    17.2246      1.605    32.7889    17.2248  4470.0000 268200.000   74.50000 279.506424  0.000e+00
  1023.7672   4.255339    17.2202      1.594    32.7813    17.2205  4480.0000 268800.000   74.66667 279.513368  0.000e+00
  1023.7664   4.255882    17.2255      1.606    32.7817    17.2258  4490.0000 269400.000   74.83333 279.520312  0.000e+00
  1023.7638   4.254862    17.2206      1.591    32.7769    17.2208  4500.0000 270000.000   75.00000 279.527257  0.000e+00
  1023.7682   4.256088    17.2249      1.600    32.7839    17.2252  4510.0000 270600.000   75.16667 279.534201  0.000e+00
  1023.7656   4.255816    17.2258      1.588    32.7809    17.2260  4520.0000 271200.000   75.33333 279.541146  0.000e+00
  1023.7688   4.257797    17.2374      1.628    32.7884    17.2377  4530.0000 271800.000   75.50000 279.548090  0.000e+00
  1023.7650   4.256313    17.2304      1.617    32.7814    17.2307  4540.0000 272400.000   75.66667 279.555035  0.000e+00
  1023.7736   4.259765    17.2466      1.552    32.7980    17.2469  4550.0000 273000.000   75.83333 279.561979  0.000e+00
  1023.7694   4.259189    17.2473      1.598    32.7924    17.2476  4560.0000 273600.000   76.00000 279.568924  0.000e+00
  1023.7688   4.259295    17.2488      1.593    32.7921    17.2490  4570.0000 274200.000   76.16667 279.575868  0.000e+00
  1023.7693   4.259116    17.2470      1.632    32.7920    17.2473  4580.0000 274800.000   76.33333 279.582812  0.000e+00
  1023.7684   4.258188    17.2408      1.607    32.7891    17.2411  4590.0000 275400.000   76.50000 279.589757  0.000e+00
  1023.7690   4.258142    17.2399      1.612    32.7895    17.2401  4600.0000 276000.000   76.66667 279.596701  0.000e+00
  1023.7689   4.258778    17.2447      1.586    32.7910    17.2450  4610.0000 276600.000   76.83333 279.603646  0.000e+00
  1023.7689   4.258274    17.2408      1.577    32.7898    17.2411  4620.0000 277200.000   77.00000 279.610590  0.000e+00
  1023.7690   4.258659    17.2437      1.599    32.7907    17.2440  4630.0000 277800.000   77.16667 279.617535  0.000e+00
  1023.7690   4.258910    17.2456      1.607    32.7914    17.2459  4640.0000 278400.000   77.33333 279.624479  0.000e+00
  1023.7686   4.258672    17.2443      1.598    32.7904    17.2445  4650.0000 279000.000   77.50000 279.631424  0.000e+00
  1023.7693   4.258725    17.2438      1.570    32.7913    17.2440  4660.0000 279600.000   77.66667 279.638368  0.000e+00
  1023.7692   4.259646    17.2510      1.590    32.7933    17.2513  4670.0000 280200.000   77.83333 279.645312  0.000e+00
  1023.7705   4.260349    17.2550      1.612    32.7961    17.2553  4680.0000 280800.000   78.00000 279.652257  0.000e+00
  1023.7704   4.260349    17.2551      1.606    32.7961    17.2553  4690.0000 281400.000   78.16667 279.659201  0.000e+00
  1023.7710   4.260309    17.2540      1.606    32.7966    17.2543  4700.0000 282000.000   78.33333 279.666146  0.000e+00
  1023.7712   4.260017    17.2516      1.596    32.7960    17.2519  4710.0000 282600.000   78.50000 279.673090  0.000e+00
  1023.7717   4.260163    17.2522      1.609    32.7968    17.2525  4720.0000 283200.000   78.66667 279.680035  0.000e+00
  1023.7721   4.259865    17.2494      1.595    32.7966    17.2496  4730.0000 283800.000   78.83333 279.686979  0.000e+00
  1023.7728   4.259653    17.2470      1.618    32.7966    17.2473  4740.0000 284400.000   79.00000 279.693924  0.000e+00
  1023.7725   4.260322    17.2524      1.597    32.7980    17.2527  4750.0000 285000.000   79.16667 279.700868  0.000e+00
  1023.7737   4.260123    17.2495      1.601    32.7986    17.2498  4760.0000 285600.000   79.33333 279.707812  0.000e+00
  1023.7739   4.260760    17.2541      1.608    32.8004    17.2544  4770.0000 286200.000   79.50000 279.714757  0.000e+00
  1023.7748   4.261316    17.2572      1.584    32.8027    17.2575  4780.0000 286800.000   79.66667 279.721701  0.000e+00
  1023.7751   4.261654    17.2596      1.593    32.8037    17.2598  4790.0000 287400.000   79.83333 279.728646  0.000e+00
  1023.7752   4.262324    17.2647      1.600    32.8053    17.2649  4800.0000 288000.000   80.00000 279.735590  0.000e+00
  1023.7756   4.262324    17.2641      1.591    32.8058    17.2643  4810.0000 288600.000   80.16667 279.742535  0.000e+00
  1023.7761   4.262722    17.2666      1.587    32.8071    17.2669  4820.0000 289200.000   80.33333 279.749479  0.000e+00
  1023.7760   4.262456    17.2648      1.607    32.8063    17.2650  4830.0000 289800.000   80.50000 279.756424  0.000e+00
  1023.7759   4.262549    17.2656      1.602    32.8065    17.2658  4840.0000 290400.000   80.66667 279.763368  0.000e+00
  1023.7762   4.263007    17.2687      1.596    32.8079    17.2689  4850.0000 291000.000   80.83333 279.770312  0.000e+00
  1023.7759   4.262059    17.2617      1.583    32.8055    17.2619  4860.0000 291600.000   81.00000 279.777257  0.000e+00
  1023.7756   4.262152    17.2628      1.578    32.8053    17.2630  4870.0000 292200.000   81.16667 279.784201  0.000e+00
  1023.7753   4.262198    17.2636      1.591    32.8051    17.2638  4880.0000 292800.000   81.33333 279.791146  0.000e+00
  1023.7752   4.262688    17.2675      1.595    32.8062    17.2677  4890.0000 293400.000   81.50000 279.798090  0.000e+00
  1023.7743   4.261800    17.2617      1.605    32.8032    17.2619  4900.0000 294000.000   81.66667 279.805035  0.000e+00
  1023.7747   4.262244    17.2645      1.575    32.8047    17.2648  4910.0000 294600.000   81.83333 279.811979  0.000e+00
  1023.7748   4.262211    17.2642      1.596    32.8047    17.2644  4920.0000 295200.000   82.00000 279.818924  0.000e+00
  1023.7748   4.262059    17.2630      1.591    32.8043    17.2633  4930.0000 295800.000   82.16667 279.825868  0.000e+00
  1023.7747   4.261999    17.2627      1.582    32.8041    17.2630  4940.0000 296400.000   82.33333 279.832812  0.000e+00
  1023.7742   4.261873    17.2622      1.570    32.8034    17.2624  4950.0000 297000.000   82.50000 279.839757  0.000e+00
  1023.7738   4.261787    17.2621      1.591    32.8028    17.2624  4960.0000 297600.000   82.66667 279.846701  0.000e+00
  1023.7743   4.261794    17.2617      1.599    32.8032    17.2619  4970.0000 298200.000   82.83333 279.853646  0.000e+00
  1023.7739   4.261807    17.2621      1.571    32.8029    17.2624  4980.0000 298800.000   83.00000 279.860590  0.000e+00
  1023.7736   4.261760    17.2621      1.582    32.8025    17.2624  4990.0000 299400.000   83.16667 279.867535  0.000e+00
  1023.7735   4.261701    17.2618      1.591    32.8022    17.2621  5000.0000 300000.000   83.33333 279.874479  0.000e+00
  1023.7725   4.261575    17.2621      1.604    32.8009    17.2624  5010.0000 300600.000   83.50000 279.881424  0.000e+00
  1023.7715   4.261482    17.2624      1.578    32.7999    17.2626  5020.0000 301200.000   83.66667 279.888368  0.000e+00
  1023.7704   4.261356    17.2626      1.565    32.7986    17.2629  5030.0000 301800.000   83.83333 279.895312  0.000e+00
  1023.7711   4.261363    17.2621      1.601    32.7991    17.2624  5040.0000 302400.000   84.00000 279.902257  0.000e+00
  1023.7705   4.261363    17.2625      1.564    32.7988    17.2628  5050.0000 303000.000   84.16667 279.909201  0.000e+00
  1023.7697   4.261144    17.2620      1.600    32.7973    17.2623  5060.0000 303600.000   84.33333 279.916146  0.000e+00
  1023.7692   4.261091    17.2620      1.561    32.7969    17.2623  5070.0000 304200.000   84.50000 279.923090  0.000e+00
  1023.7691   4.260998    17.2615      1.593    32.7965    17.2617  5080.0000 304800.000   84.66667 279.930035  0.000e+00
  1023.7688   4.260925    17.2612      1.573    32.7961    17.2615  5090.0000 305400.000   84.83333 279.936979  0.000e+00
  1023.7679   4.260766    17.2611      1.584    32.7948    17.2613  5100.0000 306000.000   85.00000 279.943924  0.000e+00
  1023.7680   4.260653    17.2600      1.568    32.7947    17.2603  5110.0000 306600.000   85.16667 279.950868  0.000e+00
  1023.7674   4.260647    17.2609      1.605    32.7939    17.2611  5120.0000 307200.000   85.33333 279.957812  0.000e+00
  1023.7668   4.260382    17.2597      1.628    32.7926    17.2599  5130.0000 307800.000   85.50000 279.964757  0.000e+00
  1023.7666   4.260143    17.2580      1.617    32.7919    17.2583  5140.0000 308400.000   85.66667 279.971701  0.000e+00
  1023.7670   4.260030    17.2566      1.599    32.7922    17.2568  5150.0000 309000.000   85.83333 279.978646  0.000e+00
  1023.7673   4.260614    17.2607      1.593    32.7938    17.2610  5160.0000 309600.000   86.00000 279.985590  0.000e+00
  1023.7667   4.261608    17.2690      1.582    32.7956    17.2693  5170.0000 310200.000   86.16667 279.992535  0.000e+00
  1023.7674   4.263192    17.2803      1.574    32.8001    17.2805  5180.0000 310800.000   86.33333 279.999479  0.000e+00
  1023.7683   4.262576    17.2746      1.602    32.7994    17.2749  5190.0000 311400.000   86.50000 280.006424  0.000e+00
  1023.7669   4.264120    17.2881      1.596    32.8017    17.2883  5200.0000 312000.000   86.66667 280.013368  0.000e+00
  1023.7670   4.263583    17.2838      1.587    32.8006    17.2841  5210.0000 312600.000   86.83333 280.020312  0.000e+00
  1023.7639   4.260905    17.2669      1.605    32.7912    17.2672  5220.0000 313200.000   87.00000 280.027257  0.000e+00
  1023.7624   4.260706    17.2671      1.605    32.7894    17.2674  5230.0000 313800.000   87.16667 280.034201  0.000e+00
  1023.7618   4.261124    17.2711      1.603    32.7898    17.2714  5240.0000 314400.000   87.33333 280.041146  0.000e+00
  1023.7626   4.261853    17.2755      1.564    32.7925    17.2758  5250.0000 315000.000   87.50000 280.048090  0.000e+00
  1023.7584   4.257618    17.2477      1.537    32.7786    17.2480  5260.0000 315600.000   87.66667 280.055035  0.000e+00
  1023.7598   4.257366    17.2444      1.580    32.7791    17.2447  5270.0000 316200.000   87.83333 280.061979  0.000e+00
  1023.7627   4.259865    17.2604      1.618    32.7876    17.2606  5280.0000 316800.000   88.00000 280.068924  0.000e+00
  1023.7638   4.260004    17.2602      1.605    32.7890    17.2604  5290.0000 317400.000   88.16667 280.075868  0.000e+00
  1023.7653   4.263636    17.2863      1.611    32.7990    17.2866  5300.0000 318000.000   88.33333 280.082812  0.000e+00
  1023.7686   4.261820    17.2685      1.616    32.7978    17.2688  5310.0000 318600.000   88.50000 280.089757  0.000e+00
  1023.7674   4.262854    17.2777      1.584    32.7993    17.2779  5320.0000 319200.000   88.66667 280.096701  0.000e+00
  1023.7677   4.264246    17.2882      1.616    32.8027    17.2884  5330.0000 319800.000   88.83333 280.103646  0.000e+00
  1023.7724   4.263875    17.2799      1.630    32.8062    17.2802  5340.0000 320400.000   89.00000 280.110590  0.000e+00
  1023.7657   4.265387    17.2991      1.581    32.8037    17.2993  5350.0000 321000.000   89.16667 280.117535  0.000e+00
  1023.7693   4.263557    17.2809      1.589    32.8027    17.2811  5360.0000 321600.000   89.33333 280.124479  0.000e+00
  1023.7688   4.263762    17.2831      1.576    32.8027    17.2833  5370.0000 322200.000   89.50000 280.131424  0.000e+00
  1023.7691   4.263902    17.2839      1.616    32.8032    17.2842  5380.0000 322800.000   89.66667 280.138368  0.000e+00
  1023.7693   4.263955    17.2841      1.623    32.8035    17.2843  5390.0000 323400.000   89.83333 280.145312  0.000e+00
  1023.7728   4.262185    17.2663      1.596    32.8027    17.2666  5400.0000 324000.000   90.00000 280.152257  0.000e+00
  1023.7706   4.262901    17.2743      1.576    32.8024    17.2746  5410.0000 324600.000   90.16667 280.159201  0.000e+00
  1023.7735   4.261555    17.2608      1.606    32.8018    17.2611  5420.0000 325200.000   90.33333 280.166146  0.000e+00
  1023.7745   4.260647    17.2526      1.598    32.8007    17.2528  5430.0000 325800.000   90.50000 280.173090  0.000e+00
  1023.7719   4.262145    17.2673      1.629    32.8016    17.2675  5440.0000 326400.000   90.66667 280.180035  0.000e+00
  1023.7734   4.261018    17.2567      1.608    32.8005    17.2570  5450.0000 327000.000   90.83333 280.186979  0.000e+00
  1023.7719   4.262357    17.2688      1.598    32.8023    17.2690  5460.0000 327600.000   91.00000 280.193924  0.000e+00
  1023.7727   4.262178    17.2665      1.611    32.8025    17.2668  5470.0000 328200.000   91.16667 280.200868  0.000e+00
  1023.7759   4.258857    17.2372      1.594    32.7978    17.2374  5480.0000 328800.000   91.33333 280.207812  0.000e+00
  1023.7738   4.261303    17.2585      1.595    32.8016    17.2587  5490.0000 329400.000   91.50000 280.214757  0.000e+00
  1023.7735   4.261170    17.2577      1.588    32.8010    17.2579  5500.0000 330000.000   91.66667 280.221701  0.000e+00
  1023.7731   4.261250    17.2589      1.609    32.8007    17.2591  5510.0000 330600.000   91.83333 280.228646  0.000e+00
  1023.7733   4.261323    17.2591      1.595    32.8012    17.2594  5520.0000 331200.000   92.00000 280.235590  0.000e+00
  1023.7712   4.259513    17.2477      1.597    32.7949    17.2480  5530.0000 331800.000   92.16667 280.242535  0.000e+00
  1023.7723   4.260753    17.2560      1.610    32.7988    17.2563  5540.0000 332400.000   92.33333 280.249479  0.000e+00
  1023.7706   4.258466    17.2404      1.595    32.7918    17.2406  5550.0000 333000.000   92.50000 280.256424  0.000e+00
  1023.7705   4.259825    17.2510      1.627    32.7949    17.2513  5560.0000 333600.000   92.66667 280.263368  0.000e+00
  1023.7702   4.259513    17.2489      1.594    32.7940    17.2491  5570.0000 334200.000   92.83333 280.270312  0.000e+00
  1023.7699   4.260064    17.2534      1.597    32.7950    17.2537  5580.0000 334800.000   93.00000 280.277257  0.000e+00
  1023.7710   4.258427    17.2397      1.614    32.7920    17.2399  5590.0000 335400.000   93.16667 280.284201  0.000e+00
  1023.7690   4.258082    17.2393      1.602    32.7894    17.2395  5600.0000 336000.000   93.33333 280.291146  0.000e+00
  1023.7687   4.259407    17.2498      1.600    32.7923    17.2501  5610.0000 336600.000   93.50000 280.298090  0.000e+00
  1023.7664   4.258321    17.2442      1.603    32.7875    17.2444  5620.0000 337200.000   93.66667 280.305035  0.000e+00
  1023.7545   4.248855    17.1854      1.620    32.7537    17.1856  5630.0000 337800.000   93.83333 280.311979  0.000e+00
  1023.7635   4.259659    17.2578      1.601    32.7880    17.2580  5640.0000 338400.000   94.00000 280.318924  0.000e+00
  1023.7622   4.259500    17.2581      1.610    32.7863    17.2584  5650.0000 339000.000   94.16667 280.325868  0.000e+00
  1023.7633   4.261038    17.2688      1.620    32.7909    17.2690  5660.0000 339600.000   94.33333 280.332812  0.000e+00
  1023.7636   4.262722    17.2812      1.606    32.7953    17.2815  5670.0000 340200.000   94.50000 280.339757  0.000e+00
  1023.7641   4.263166    17.2840      1.602    32.7968    17.2843  5680.0000 340800.000   94.66667 280.346701  0.000e+00
  1023.7638   4.262397    17.2785      1.621    32.7946    17.2788  5690.0000 341400.000   94.83333 280.353646  0.000e+00
  1023.7341   4.248683    17.2075      1.575    32.7343    17.2078  5700.0000 342000.000   95.00000 280.360590  0.000e+00
  1023.7485   4.253762    17.2300      1.608    32.7598    17.2303  5710.0000 342600.000   95.16667 280.367535  0.000e+00
  1023.7284   4.242191    17.1644      1.617    32.7133    17.1647  5720.0000 343200.000   95.33333 280.374479  0.000e+00
  1023.7628   4.262728    17.2823      1.622    32.7945    17.2825  5730.0000 343800.000   95.50000 280.381424  0.000e+00
  1023.7139   4.234023    17.1184      1.633    32.6802    17.1187  5740.0000 344400.000   95.66667 280.388368  0.000e+00
  1023.7637   4.263895    17.2902      1.635    32.7980    17.2905  5750.0000 345000.000   95.83333 280.395312  0.000e+00
  1023.7637   4.264094    17.2917      1.613    32.7985    17.2920  5760.0000 345600.000   96.00000 280.402257  0.000e+00
  1023.7625   4.263994    17.2923      1.618    32.7972    17.2926  5770.0000 346200.000   96.16667 280.409201  0.000e+00
  1023.7548   4.259063    17.2636      1.639    32.7781    17.2638  5780.0000 346800.000   96.33333 280.416146  0.000e+00
  1023.7511   4.257823    17.2583      1.635    32.7718    17.2585  5790.0000 347400.000   96.50000 280.423090  0.000e+00
  1023.7496   4.256816    17.2522      1.613    32.7680    17.2525  5800.0000 348000.000   96.66667 280.430035  0.000e+00
  1023.7508   4.258122    17.2610      1.626    32.7721    17.2612  5810.0000 348600.000   96.83333 280.436979  0.000e+00
  1023.7430   4.254027    17.2386      1.624    32.7551    17.2388  5820.0000 349200.000   97.00000 280.443924  0.000e+00
  1023.7487   4.253358    17.2268      1.633    32.7589    17.2271  5830.0000 349800.000   97.16667 280.450868  0.000e+00
  1023.7395   4.252921    17.2341      1.601    32.7492    17.2343  5840.0000 350400.000   97.33333 280.457812  0.000e+00
  1023.7332   4.251610    17.2314      1.631    32.7401    17.2316  5850.0000 351000.000   97.50000 280.464757  0.000e+00
  1023.7319   4.251868    17.2349      1.630    32.7395    17.2352  5860.0000 351600.000   97.66667 280.471701  0.000e+00
  1023.7227   4.247783    17.2144      1.660    32.7210    17.2146  5870.0000 352200.000   97.83333 280.478646  0.000e+00
  1023.7419   4.252888    17.2310      1.596    32.7515    17.2312  5880.0000 352800.000   98.00000 280.485590  0.000e+00
  1023.7308   4.251749    17.2352      1.614    32.7382    17.2354  5890.0000 353400.000   98.16667 280.492535  0.000e+00
  1023.7387   4.253716    17.2412      1.619    32.7503    17.2414  5900.0000 354000.000   98.33333 280.499479  0.000e+00
  1023.7204   4.247035    17.2111      1.625    32.7172    17.2113  5910.0000 354600.000   98.50000 280.506424  0.000e+00
  1023.7176   4.249100    17.2301      1.589    32.7196    17.2303  5920.0000 355200.000   98.66667 280.513368  0.000e+00
  1023.6879   4.232310    17.1358      1.669    32.6514    17.1361  5930.0000 355800.000   98.83333 280.520312  0.000e+00
  1023.6864   4.231022    17.1274      1.613    32.6471    17.1277  5940.0000 356400.000   99.00000 280.527257  0.000e+00
  1023.6871   4.231544    17.1307      1.645    32.6489    17.1309  5950.0000 357000.000   99.16667 280.534201  0.000e+00
  1023.6868   4.231868    17.1335      1.637    32.6494    17.1338  5960.0000 357600.000   99.33333 280.541146  0.000e+00
  1023.6901   4.233692    17.1437      1.621    32.6569    17.1439  5970.0000 358200.000   99.50000 280.548090  0.000e+00
  1023.7041   4.239174    17.1696      1.627    32.6832    17.1698  5980.0000 358800.000   99.66667 280.555035  0.000e+00
  1023.6994   4.237223    17.1601      1.628    32.6740    17.1604  5990.0000 359400.000   99.83333 280.561979  0.000e+00
  1023.7078   4.243209    17.1963      1.613    32.6963    17.1966  6000.0000 360000.000  100.00000 280.568924  0.000e+00
  1023.6908   4.239650    17.1890      1.664    32.6715    17.1892  6010.0000 360600.000  100.16667 280.575868  0.000e+00
  1023.6900   4.241793    17.2062      1.607    32.6760    17.2065  6020.0000 361200.000  100.33333 280.582812  0.000e+00
  1023.6913   4.242197    17.2080      1.638    32.6781    17.2082  6030.0000 361800.000  100.50000 280.589757  0.000e+00
  1023.6952   4.240682    17.1917      1.654    32.6782    17.1920  6040.0000 362400.000  100.66667 280.596701  0.000e+00
  1023.6922   4.240993    17.1975      1.619    32.6762    17.1978  6050.0000 363000.000  100.83333 280.603646  0.000e+00
  1023.7044   4.245274    17.2162      1.600    32.6980    17.2164  6060.0000 363600.000  101.00000 280.610590  0.000e+00
  1023.6934   4.241026    17.1965      1.637    32.6773    17.1968  6070.0000 364200.000  101.16667 280.617535  0.000e+00
  1023.6347   4.220479    17.1065      1.647    32.5731    17.1068  6080.0000 364800.000  101.33333 280.624479  0.000e+00
  1023.5674   4.204118    17.0587      1.651    32.4707    17.0590  6090.0000 365400.000  101.50000 280.631424  0.000e+00
  1023.6695   4.232674    17.1599      1.634    32.6350    17.1602  6100.0000 366000.000  101.66667 280.638368  0.000e+00
  1023.6299   4.219370    17.1037      1.664    32.5658    17.1039  6110.0000 366600.000  101.83333 280.645312  0.000e+00
  1023.6051   4.217151    17.1154      1.634    32.5373    17.1156  6120.0000 367200.000  102.00000 280.652257  0.000e+00
  1023.6181   4.205622    17.0106      1.579    32.5225    17.0108  6130.0000 367800.000  102.16667 280.659201  0.000e+00
  1023.6303   4.216162    17.0781      1.617    32.5589    17.0783  6140.0000 368400.000  102.33333 280.666146  0.000e+00
  1023.5765   4.197911    16.9996      1.625    32.4647    16.9999  6150.0000 369000.000  102.50000 280.673090  0.000e+00
  1023.6284   4.218571    17.0990      1.632    32.5627    17.0993  6160.0000 369600.000  102.66667 280.680035  0.000e+00
  1023.6694   4.233692    17.1679      1.631    32.6373    17.1682  6170.0000 370200.000  102.83333 280.686979  0.000e+00
  1023.6697   4.231702    17.1522      1.635    32.6329    17.1524  6180.0000 370800.000  103.00000 280.693924  0.000e+00
  1023.6513   4.220710    17.0889      1.643    32.5893    17.0892  6190.0000 371400.000  103.16667 280.700868  0.000e+00
  1023.6766   4.226812    17.1064      1.642    32.6278    17.1067  6200.0000 372000.000  103.33333 280.707812  0.000e+00
  1023.6332   4.219376    17.0997      1.640    32.5691    17.1000  6210.0000 372600.000  103.50000 280.714757  0.000e+00
  1023.6716   4.226191    17.1075      1.644    32.6215    17.1078  6220.0000 373200.000  103.66667 280.721701  0.000e+00
  1023.6133   4.214024    17.0815      1.634    32.5377    17.0818  6230.0000 373800.000  103.83333 280.728646  0.000e+00
  1023.6822   4.230480    17.1283      1.642    32.6417    17.1285  6240.0000 374400.000  104.00000 280.735590  0.000e+00
  1023.5657   4.203301    17.0542      1.633    32.4672    17.0545  6250.0000 375000.000  104.16667 280.742535  0.000e+00
  1023.6415   4.222856    17.1169      1.635    32.5852    17.1172  6260.0000 375600.000  104.33333 280.749479  0.000e+00
  1023.5725   4.199887    17.0197      1.628    32.4656    17.0200  6270.0000 376200.000  104.50000 280.756424  0.000e+00
  1023.5920   4.202036    17.0136      1.648    32.4890    17.0139  6280.0000 376800.000  104.66667 280.763368  0.000e+00
  1023.6212   4.210969    17.0487      1.650    32.5378    17.0490  6290.0000 377400.000  104.83333 280.770312  0.000e+00
  1023.6548   4.220076    17.0799      1.655    32.5912    17.0801  6300.0000 378000.000  105.00000 280.777257  0.000e+00
  1023.6574   4.220453    17.0798      1.657    32.5945    17.0801  6310.0000 378600.000  105.16667 280.784201  0.000e+00
  1023.6422   4.215324    17.0578      1.657    32.5680    17.0581  6320.0000 379200.000  105.33333 280.791146  0.000e+00
  1023.6226   4.210105    17.0403      1.636    32.5372    17.0405  6330.0000 379800.000  105.50000 280.798090  0.000e+00
  1023.6184   4.207870    17.0278      1.641    32.5279    17.0281  6340.0000 380400.000  105.66667 280.805035  0.000e+00
  1023.6394   4.213569    17.0475      1.658    32.5612    17.0478  6350.0000 381000.000  105.83333 280.811979  0.000e+00
  1023.6356   4.210422    17.0276      1.642    32.5501    17.0279  6360.0000 381600.000  106.00000 280.818924  0.000e+00
  1023.6229   4.211174    17.0482      1.650    32.5399    17.0485  6370.0000 382200.000  106.16667 280.825868  0.000e+00
  1023.6709   4.224355    17.0941      1.653    32.6165    17.0944  6380.0000 382800.000  106.33333 280.832812  0.000e+00
  1023.6217   4.204870    17.0008      1.653    32.5238    17.0011  6390.0000 383400.000  106.50000 280.839757  0.000e+00
  1023.6546   4.218928    17.0711      1.640    32.5883    17.0714  6400.0000 384000.000  106.66667 280.846701  0.000e+00
  1023.6191   4.207659    17.0255      1.650    32.5279    17.0258  6410.0000 384600.000  106.83333 280.853646  0.000e+00
  1023.6188   4.210409    17.0471      1.641    32.5342    17.0474  6420.0000 385200.000  107.00000 280.860590  0.000e+00
  1023.6323   4.213582    17.0559      1.647    32.5545    17.0562  6430.0000 385800.000  107.16667 280.867535  0.000e+00
  1023.6133   4.210336    17.0529      1.642    32.5289    17.0532  6440.0000 386400.000  107.33333 280.874479  0.000e+00
  1023.5767   4.191931    16.9531      1.650    32.4506    16.9533  6450.0000 387000.000  107.50000 280.881424  0.000e+00
  1023.5576   4.183080    16.9066      1.659    32.4115    16.9069  6460.0000 387600.000  107.66667 280.888368  0.000e+00
  1023.6190   4.209835    17.0425      1.647    32.5330    17.0428  6470.0000 388200.000  107.83333 280.895312  0.000e+00
  1023.6120   4.208826    17.0429      1.664    32.5240    17.0432  6480.0000 388800.000  108.00000 280.902257  0.000e+00
  1023.6099   4.208180    17.0404      1.666    32.5204    17.0407  6490.0000 389400.000  108.16667 280.909201  0.000e+00
  1023.5715   4.190147    16.9454      1.666    32.4414    16.9457  6500.0000 390000.000  108.33333 280.916146  0.000e+00
  1023.4162   4.146605    16.7878      1.652    32.1913    16.7880  6510.0000 390600.000  108.50000 280.923090  0.000e+00
  1023.4330   4.143755    16.7456      1.660    32.2005    16.7458  6520.0000 391200.000  108.66667 280.930035  0.000e+00
  1023.5244   4.175117    16.8836      1.663    32.3612    16.8838  6530.0000 391800.000  108.83333 280.936979  0.000e+00
  1023.4366   4.132878    16.6558      1.657    32.1782    16.6560  6540.0000 392400.000  109.00000 280.943924  0.000e+00
  1023.4842   4.155550    16.7779      1.688    32.2767    16.7782  6550.0000 393000.000  109.16667 280.950868  0.000e+00
  1023.5188   4.171418    16.8615      1.725    32.3470    16.8617  6560.0000 393600.000  109.33333 280.957812  0.000e+00
  1023.4927   4.142655    16.6665      1.664    32.2545    16.6668  6570.0000 394200.000  109.50000 280.964757  0.000e+00
  1023.4542   4.132969    16.6358      1.658    32.1951    16.6360  6580.0000 394800.000  109.66667 280.971701  0.000e+00
  1023.4543   4.131693    16.6255      1.653    32.1922    16.6258  6590.0000 395400.000  109.83333 280.978646  0.000e+00
  1023.4566   4.146665    16.7407      1.679    32.2296    16.7410  6600.0000 396000.000  110.00000 280.985590  0.000e+00
  1023.4430   4.143460    16.7315      1.678    32.2092    16.7318  6610.0000 396600.000  110.16667 280.992535  0.000e+00
  1023.4665   4.154913    16.7937      1.678    32.2585    16.7940  6620.0000 397200.000  110.33333 280.999479  0.000e+00
  1023.4571   4.147943    16.7503      1.707    32.2330    16.7506  6630.0000 397800.000  110.50000 281.006424  0.000e+00
  1023.4638   4.151083    16.7669      1.669    32.2469    16.7671  6640.0000 398400.000  110.66667 281.013368  0.000e+00
  1023.4806   4.156606    16.7904      1.679    32.2759    16.7907  6650.0000 399000.000  110.83333 281.020312  0.000e+00
  1023.5059   4.171247    16.8750      1.639    32.3346    16.8752  6660.0000 399600.000  111.00000 281.027257  0.000e+00
  1023.5005   4.156881    16.7691      1.695    32.2953    16.7694  6670.0000 400200.000  111.16667 281.034201  0.000e+00
  1023.5070   4.157590    16.7669      1.668    32.3033    16.7671  6680.0000 400800.000  111.33333 281.041146  0.000e+00
  1023.5043   4.150893    16.7177      1.698    32.2848    16.7180  6690.0000 401400.000  111.50000 281.048090  0.000e+00
  1023.4924   4.140893    16.6532      1.695    32.2499    16.6534  6700.0000 402000.000  111.66667 281.055035  0.000e+00
  1023.4849   4.136335    16.6261      1.694    32.2321    16.6264  6710.0000 402600.000  111.83333 281.061979  0.000e+00
  1023.4834   4.130797    16.5842      1.687    32.2176    16.5845  6720.0000 403200.000  112.00000 281.068924  0.000e+00
  1023.4855   4.130666    16.5806      1.660    32.2194    16.5809  6730.0000 403800.000  112.16667 281.075868  0.000e+00
  1023.4862   4.131517    16.5866      1.683    32.2219    16.5869  6740.0000 404400.000  112.33333 281.082812  0.000e+00
  1023.4859   4.134050    16.6071      1.723    32.2275    16.6074  6750.0000 405000.000  112.50000 281.089757  0.000e+00
  1023.4946   4.137985    16.6275      1.672    32.2453    16.6278  6760.0000 405600.000  112.66667 281.096701  0.000e+00
  1023.5130   4.138142    16.6073      1.716    32.2629    16.6076  6770.0000 406200.000  112.83333 281.103646  0.000e+00
  1023.5089   4.136544    16.5992      1.648    32.2556    16.5995  6780.0000 406800.000  113.00000 281.110590  0.000e+00
  1023.5169   4.136944    16.5933      1.715    32.2638    16.5935  6790.0000 407400.000  113.16667 281.117535  0.000e+00
  1023.5218   4.135595    16.5768      1.694    32.2654    16.5770  6800.0000 408000.000  113.33333 281.124479  0.000e+00
  1023.5246   4.135595    16.5736      1.704    32.2680    16.5738  6810.0000 408600.000  113.50000 281.131424  0.000e+00
  1023.5437   4.142649    16.6064      1.663    32.3029    16.6066  6820.0000 409200.000  113.66667 281.138368  0.000e+00
  1023.5355   4.140565    16.5997      1.677    32.2901    16.6000  6830.0000 409800.000  113.83333 281.145312  0.000e+00
  1023.5435   4.148979    16.6563      1.664    32.3177    16.6565  6840.0000 410400.000  114.00000 281.152257  0.000e+00
  1023.5478   4.146299    16.6304      1.690    32.3153    16.6306  6850.0000 411000.000  114.16667 281.159201  0.000e+00
  1023.5629   4.158030    16.7045      1.640    32.3575    16.7047  6860.0000 411600.000  114.33333 281.166146  0.000e+00
  1023.5546   4.145099    16.6132      1.730    32.3187    16.6134  6870.0000 412200.000  114.50000 281.173090  0.000e+00
  1023.5624   4.140350    16.5664      1.719    32.3151    16.5667  6880.0000 412800.000  114.66667 281.180035  0.000e+00
  1023.5549   4.139328    16.5671      1.677    32.3057    16.5674  6890.0000 413400.000  114.83333 281.186979  0.000e+00
  1023.5638   4.142459    16.5814      1.710    32.3214    16.5817  6900.0000 414000.000  115.00000 281.193924  0.000e+00
  1023.5682   4.149858    16.6345      1.735    32.3429    16.6348  6910.0000 414600.000  115.16667 281.200868  0.000e+00
  1023.5794   4.155072    16.6622      1.729    32.3659    16.6624  6920.0000 415200.000  115.33333 281.207812  0.000e+00
  1023.5828   4.144123    16.5721      1.703    32.3434    16.5723  6930.0000 415800.000  115.50000 281.214757  0.000e+00
  1023.5831   4.149924    16.6174      1.703    32.3573    16.6176  6940.0000 416400.000  115.66667 281.221701  0.000e+00
  1023.5829   4.144903    16.5783      1.742    32.3452    16.5785  6950.0000 417000.000  115.83333 281.228646  0.000e+00
  1023.5860   4.143101    16.5603      1.709    32.3440    16.5606  6960.0000 417600.000  116.00000 281.235590  0.000e+00
  1023.5882   4.145080    16.5733      1.718    32.3508    16.5736  6970.0000 418200.000  116.16667 281.242535  0.000e+00
  1023.5996   4.140533    16.5243      1.728    32.3508    16.5245  6980.0000 418800.000  116.33333 281.249479  0.000e+00
  1023.5874   4.148960    16.6048      1.734    32.3590    16.6051  6990.0000 419400.000  116.50000 281.256424  0.000e+00
  1023.5959   4.143658    16.5530      1.717    32.3548    16.5533  7000.0000 420000.000  116.66667 281.263368  0.000e+00
  1023.5816   4.144064    16.5731      1.712    32.3421    16.5733  7010.0000 420600.000  116.83333 281.270312  0.000e+00
  1023.5751   4.142610    16.5694      1.717    32.3324    16.5696  7020.0000 421200.000  117.00000 281.277257  0.000e+00
  1023.5515   4.139472    16.5724      1.720    32.3027    16.5727  7030.0000 421800.000  117.16667 281.284201  0.000e+00
  1023.5804   4.143101    16.5669      1.723    32.3387    16.5672  7040.0000 422400.000  117.33333 281.291146  0.000e+00
  1023.5809   4.143429    16.5690      1.709    32.3399    16.5692  7050.0000 423000.000  117.50000 281.298090  0.000e+00
  1023.5849   4.144385    16.5717      1.702    32.3460    16.5720  7060.0000 423600.000  117.66667 281.305035  0.000e+00
  1023.5597   4.139596    16.5636      1.687    32.3109    16.5639  7070.0000 424200.000  117.83333 281.311979  0.000e+00
  1023.5724   4.143914    16.5829      1.729    32.3329    16.5831  7080.0000 424800.000  118.00000 281.318924  0.000e+00
  1023.5647   4.143527    16.5887      1.710    32.3248    16.5890  7090.0000 425400.000  118.16667 281.325868  0.000e+00
  1023.5527   4.139151    16.5686      1.740    32.3029    16.5689  7100.0000 426000.000  118.33333 281.332812  0.000e+00
  1023.5475   4.137186    16.5592      1.743    32.2934    16.5595  7110.0000 426600.000  118.50000 281.339757  0.000e+00
  1023.5515   4.137167    16.5543      1.716    32.2972    16.5546  7120.0000 427200.000  118.66667 281.346701  0.000e+00
  1023.5567   4.137612    16.5518      1.741    32.3031    16.5521  7130.0000 427800.000  118.83333 281.353646  0.000e+00
  1023.5556   4.136453    16.5440      1.750    32.2993    16.5443  7140.0000 428400.000  119.00000 281.360590  0.000e+00
  1023.5553   4.135949    16.5402      1.728    32.2979    16.5405  7150.0000 429000.000  119.16667 281.367535  0.000e+00
  1023.5330   4.135314    16.5614      1.716    32.2753    16.5617  7160.0000 429600.000  119.33333 281.374479  0.000e+00
  1023.5503   4.136060    16.5470      1.718    32.2934    16.5473  7170.0000 430200.000  119.50000 281.381424  0.000e+00
  1023.5298   4.134253    16.5569      1.720    32.2697    16.5572  7180.0000 430800.000  119.66667 281.388368  0.000e+00
  1023.5250   4.135052    16.5689      1.743    32.2669    16.5692  7190.0000 431400.000  119.83333 281.395312  0.000e+00
  1023.4816   4.131720    16.5938      1.740    32.2179    16.5941  7200.0000 432000.000  120.00000 281.402257  0.000e+00
  1023.5373   4.135988    16.5617      1.702    32.2810    16.5619  7210.0000 432600.000  120.16667 281.409201  0.000e+00
  1023.5151   4.133448    16.5679      1.737    32.2538    16.5682  7220.0000 433200.000  120.33333 281.416146  0.000e+00
  1023.5125   4.132636    16.5647      1.741    32.2493    16.5650  7230.0000 433800.000  120.50000 281.423090  0.000e+00
  1023.5120   4.132852    16.5669      1.725    32.2495    16.5671  7240.0000 434400.000  120.66667 281.430035  0.000e+00
  1023.4881   4.130607    16.5774      1.723    32.2214    16.5777  7250.0000 435000.000  120.83333 281.436979  0.000e+00
  1023.5114   4.136996    16.6002      1.725    32.2586    16.6005  7260.0000 435600.000  121.00000 281.443924  0.000e+00
  1023.4900   4.133467    16.5976      1.722    32.2300    16.5979  7270.0000 436200.000  121.16667 281.450868  0.000e+00
  1023.5009   4.133683    16.5865      1.724    32.2409    16.5867  7280.0000 436800.000  121.33333 281.457812  0.000e+00
  1023.4799   4.133421    16.6093      1.740    32.2202    16.6096  7290.0000 437400.000  121.50000 281.464757  0.000e+00
  1023.4906   4.132976    16.5932      1.735    32.2293    16.5935  7300.0000 438000.000  121.66667 281.471701  0.000e+00
  1023.5029   4.132715    16.5766      1.743    32.2404    16.5769  7310.0000 438600.000  121.83333 281.478646  0.000e+00
  1023.4923   4.134109    16.6001      1.750    32.2336    16.6004  7320.0000 439200.000  122.00000 281.485590  0.000e+00
  1023.5045   4.139347    16.6268      1.713    32.2577    16.6271  7330.0000 439800.000  122.16667 281.492535  0.000e+00
  1023.4597   4.131451    16.6175      1.725    32.1965    16.6178  7340.0000 440400.000  122.33333 281.499479  0.000e+00
  1023.4635   4.133127    16.6264      1.756    32.2039    16.6267  7350.0000 441000.000  122.50000 281.506424  0.000e+00
  1023.4577   4.131994    16.6243      1.740    32.1957    16.6246  7360.0000 441600.000  122.66667 281.513368  0.000e+00
  1023.4364   4.130424    16.6372      1.751    32.1718    16.6375  7370.0000 442200.000  122.83333 281.520312  0.000e+00
  1023.4326   4.129638    16.6354      1.742    32.1663    16.6357  7380.0000 442800.000  123.00000 281.527257  0.000e+00
  1023.4267   4.130011    16.6453      1.744    32.1616    16.6456  7390.0000 443400.000  123.16667 281.534201  0.000e+00
  1023.4167   4.127819    16.6398      1.733    32.1470    16.6401  7400.0000 444000.000  123.33333 281.541146  0.000e+00
  1023.4051   4.127237    16.6490      1.735    32.1346    16.6492  7410.0000 444600.000  123.50000 281.548090  0.000e+00
  1023.3694   4.125124    16.6746      1.743    32.0957    16.6749  7420.0000 445200.000  123.66667 281.555035  0.000e+00
  1023.3890   4.126079    16.6590      1.745    32.1165    16.6592  7430.0000 445800.000  123.83333 281.561979  0.000e+00
  1023.3693   4.124876    16.6728      1.735    32.0950    16.6730  7440.0000 446400.000  124.00000 281.568924  0.000e+00
  1023.3800   4.124784    16.6592      1.726    32.1051    16.6595  7450.0000 447000.000  124.16667 281.575868  0.000e+00
  1023.3642   4.123967    16.6716      1.733    32.0881    16.6719  7460.0000 447600.000  124.33333 281.582812  0.000e+00
  1023.3793   4.124758    16.6600      1.739    32.1043    16.6602  7470.0000 448200.000  124.50000 281.589757  0.000e+00
  1023.3727   4.123548    16.6582      1.725    32.0952    16.6585  7480.0000 448800.000  124.66667 281.596701  0.000e+00
  1023.3719   4.122822    16.6535      1.752    32.0926    16.6538  7490.0000 449400.000  124.83333 281.603646  0.000e+00
  1023.3644   4.123574    16.6681      1.709    32.0874    16.6684  7500.0000 450000.000  125.00000 281.610590  0.000e+00
  1023.3699   4.123509    16.6612      1.731    32.0925    16.6614  7510.0000 450600.000  125.16667 281.617535  0.000e+00
  1023.3700   4.124169    16.6662      1.710    32.0942    16.6665  7520.0000 451200.000  125.33333 281.624479  0.000e+00
  1023.3795   4.125706    16.6670      1.707    32.1068    16.6673  7530.0000 451800.000  125.50000 281.631424  0.000e+00
  1023.3682   4.124987    16.6749      1.731    32.0943    16.6751  7540.0000 452400.000  125.66667 281.638368  0.000e+00
  1023.3775   4.125660    16.6691      1.717    32.1047    16.6694  7550.0000 453000.000  125.83333 281.645312  0.000e+00
  1023.3784   4.126164    16.6720      1.711    32.1068    16.6723  7560.0000 453600.000  126.00000 281.652257  0.000e+00
  1023.3793   4.126177    16.6711      1.718    32.1077    16.6714  7570.0000 454200.000  126.16667 281.659201  0.000e+00
  1023.3848   4.124268    16.6495      1.716    32.1084    16.6497  7580.0000 454800.000  126.33333 281.666146  0.000e+00
  1023.3907   4.124673    16.6458      1.720    32.1149    16.6460  7590.0000 455400.000  126.50000 281.673090  0.000e+00
  1023.4004   4.122751    16.6190      1.695    32.1197    16.6192  7600.0000 456000.000  126.66667 281.680035  0.000e+00
  1023.3962   4.122437    16.6215      1.712    32.1150    16.6217  7610.0000 456600.000  126.83333 281.686979  0.000e+00
  1023.4001   4.122515    16.6175      1.708    32.1188    16.6178  7620.0000 457200.000  127.00000 281.693924  0.000e+00
  1023.4054   4.120593    16.5960      1.716    32.1193    16.5963  7630.0000 457800.000  127.16667 281.700868  0.000e+00
  1023.4158   4.120633    16.5840      1.718    32.1293    16.5843  7640.0000 458400.000  127.33333 281.707812  0.000e+00
  1023.4138   4.122659    16.6024      1.703    32.1322    16.6027  7650.0000 459000.000  127.50000 281.714757  0.000e+00
  1023.4140   4.120986    16.5890      1.720    32.1284    16.5893  7660.0000 459600.000  127.66667 281.721701  0.000e+00
  1023.4183   4.119182    16.5695      1.700    32.1283    16.5698  7670.0000 460200.000  127.83333 281.728646  0.000e+00
  1023.4183   4.118613    16.5652      1.717    32.1269    16.5655  7680.0000 460800.000  128.00000 281.735590  0.000e+00
  1023.4172   4.120038    16.5777      1.714    32.1293    16.5779  7690.0000 461400.000  128.16667 281.742535  0.000e+00
  1023.4166   4.116071    16.5472      1.721    32.1192    16.5474  7700.0000 462000.000  128.33333 281.749479  0.000e+00
  1023.4165   4.117018    16.5546      1.713    32.1215    16.5549  7710.0000 462600.000  128.50000 281.756424  0.000e+00
  1023.4157   4.115091    16.5404      1.703    32.1161    16.5407  7720.0000 463200.000  128.66667 281.763368  0.000e+00
  1023.4157   4.112530    16.5201      1.694    32.1101    16.5203  7730.0000 463800.000  128.83333 281.770312  0.000e+00
  1023.4137   4.113497    16.5301      1.696    32.1105    16.5304  7740.0000 464400.000  129.00000 281.777257  0.000e+00
  1023.4140   4.113209    16.5275      1.709    32.1101    16.5278  7750.0000 465000.000  129.16667 281.784201  0.000e+00
  1023.4170   4.113797    16.5286      1.698    32.1143    16.5289  7760.0000 465600.000  129.33333 281.791146  0.000e+00
  1023.4189   4.112837    16.5187      1.687    32.1140    16.5189  7770.0000 466200.000  129.50000 281.798090  0.000e+00
  1023.4174   4.112889    16.5209      1.693    32.1126    16.5212  7780.0000 466800.000  129.66667 281.805035  0.000e+00
  1023.4204   4.113327    16.5208      1.702    32.1165    16.5211  7790.0000 467400.000  129.83333 281.811979  0.000e+00
  1023.4205   4.111413    16.5055      1.689    32.1122    16.5057  7800.0000 468000.000  130.00000 281.818924  0.000e+00
  1023.4220   4.111021    16.5006      1.695    32.1126    16.5009  7810.0000 468600.000  130.16667 281.825868  0.000e+00
  1023.4228   4.110172    16.4930      1.688    32.1114    16.4933  7820.0000 469200.000  130.33333 281.832812  0.000e+00
  1023.4258   4.109075    16.4808      1.697    32.1116    16.4811  7830.0000 469800.000  130.50000 281.839757  0.000e+00
  1023.4243   4.109239    16.4838      1.688    32.1106    16.4841  7840.0000 470400.000  130.66667 281.846701  0.000e+00
  1023.4242   4.109866    16.4889      1.706    32.1120    16.4892  7850.0000 471000.000  130.83333 281.853646  0.000e+00
  1023.4253   4.109487    16.4846      1.690    32.1122    16.4848  7860.0000 471600.000  131.00000 281.860590  0.000e+00
  1023.4248   4.108906    16.4806      1.693    32.1103    16.4808  7870.0000 472200.000  131.16667 281.867535  0.000e+00
  1023.4267   4.107228    16.4650      1.683    32.1082    16.4652  7880.0000 472800.000  131.33333 281.874479  0.000e+00
  1023.4262   4.108344    16.4745      1.691    32.1103    16.4748  7890.0000 473400.000  131.50000 281.881424  0.000e+00
  1023.4296   4.105041    16.4442      1.684    32.1058    16.4445  7900.0000 474000.000  131.66667 281.888368  0.000e+00
  1023.4303   4.105655    16.4484      1.704    32.1078    16.4487  7910.0000 474600.000  131.83333 281.895312  0.000e+00
  1023.4307   4.104982    16.4425      1.678    32.1067    16.4427  7920.0000 475200.000  132.00000 281.902257  0.000e+00
  1023.4288   4.104539    16.4412      1.676    32.1038    16.4415  7930.0000 475800.000  132.16667 281.909201  0.000e+00
  1023.4300   4.099417    16.3992      1.687    32.0929    16.3995  7940.0000 476400.000  132.33333 281.916146  0.000e+00
  1023.4288   4.103246    16.4310      1.684    32.1008    16.4312  7950.0000 477000.000  132.50000 281.923090  0.000e+00
  1023.4285   4.101909    16.4207      1.682    32.0974    16.4209  7960.0000 477600.000  132.66667 281.930035  0.000e+00
  1023.4317   4.100663    16.4069      1.673    32.0976    16.4072  7970.0000 478200.000  132.83333 281.936979  0.000e+00
  1023.4301   4.099749    16.4017      1.677    32.0938    16.4020  7980.0000 478800.000  133.00000 281.943924  0.000e+00
  1023.4265   4.099123    16.4010      1.677    32.0890    16.4012  7990.0000 479400.000  133.16667 281.950868  0.000e+00
  1023.4216   4.098262    16.3999      1.677    32.0823    16.4001  8000.0000 480000.000  133.33333 281.957812  0.000e+00
  1023.4287   4.097388    16.3845      1.669    32.0870    16.3848  8010.0000 480600.000  133.50000 281.964757  0.000e+00
  1023.4271   4.096932    16.3828      1.656    32.0845    16.3830  8020.0000 481200.000  133.66667 281.971701  0.000e+00
  1023.4106   4.095047    16.3874      1.677    32.0642    16.3877  8030.0000 481800.000  133.83333 281.978646  0.000e+00
  1023.3701   4.090939    16.4028      1.663    32.0160    16.4030  8040.0000 482400.000  134.00000 281.985590  0.000e+00
  1023.3685   4.087277    16.3755      1.655    32.0060    16.3757  8050.0000 483000.000  134.16667 281.992535  0.000e+00
  1023.3500   4.086209    16.3889      1.655    31.9859    16.3892  8060.0000 483600.000  134.33333 281.999479  0.000e+00
  1023.3475   4.084964    16.3820      1.661    31.9805    16.3823  8070.0000 484200.000  134.50000 282.006424  0.000e+00
  1023.3405   4.079774    16.3490      1.648    31.9617    16.3492  8080.0000 484800.000  134.66667 282.013368  0.000e+00
  1023.3728   4.090014    16.3921      1.655    32.0165    16.3924  8090.0000 485400.000  134.83333 282.020312  0.000e+00
  1023.3577   4.089310    16.4045      1.658    32.0005    16.4047  8100.0000 486000.000  135.00000 282.027257  0.000e+00
  1023.3425   4.082906    16.3716      1.660    31.9709    16.3719  8110.0000 486600.000  135.16667 282.034201  0.000e+00
  1023.3247   4.078264    16.3558      1.654    31.9430    16.3560  8120.0000 487200.000  135.33333 282.041146  0.000e+00
  1023.2931   4.071243    16.3373      1.649    31.8965    16.3376  8130.0000 487800.000  135.50000 282.048090  0.000e+00
  1023.2892   4.071210    16.3417      1.651    31.8927    16.3419  8140.0000 488400.000  135.66667 282.055035  0.000e+00
  1023.2351   4.066131    16.3657      1.663    31.8292    16.3659  8150.0000 489000.000  135.83333 282.061979  0.000e+00
  1023.2344   4.064440    16.3529      1.635    31.8246    16.3531  8160.0000 489600.000  136.00000 282.068924  0.000e+00
  1023.2375   4.064681    16.3511      1.640    31.8281    16.3514  8170.0000 490200.000  136.16667 282.075868  0.000e+00
  1023.2461   4.065832    16.3501      1.643    31.8390    16.3503  8180.0000 490800.000  136.33333 282.082812  0.000e+00
  1023.2219   4.066339    16.3829      1.633    31.8172    16.3832  8190.0000 491400.000  136.50000 282.089757  0.000e+00
  1023.2507   4.071567    16.3903      1.643    31.8570    16.3906  8200.0000 492000.000  136.66667 282.096701  0.000e+00
  1023.2376   4.070793    16.3996      1.626    31.8428    16.3999  8210.0000 492600.000  136.83333 282.103646  0.000e+00
  1023.2167   4.072660    16.4395      1.637    31.8273    16.4397  8220.0000 493200.000  137.00000 282.110590  0.000e+00
  1023.2144   4.070357    16.4238      1.629    31.8197    16.4241  8230.0000 493800.000  137.16667 282.117535  0.000e+00
  1023.2059   4.066085    16.3999      1.622    31.8015    16.4001  8240.0000 494400.000  137.33333 282.124479  0.000e+00
  1023.2080   4.064206    16.3824      1.627    31.7991    16.3826  8250.0000 495000.000  137.50000 282.131424  0.000e+00
  1023.1869   4.049670    16.2913      1.630    31.7447    16.2915  8260.0000 495600.000  137.66667 282.138368  0.000e+00
  1023.1767   4.047917    16.2894      1.619    31.7309    16.2897  8270.0000 496200.000  137.83333 282.145312  0.000e+00
  1023.2157   4.062562    16.3601      1.632    31.8025    16.3604  8280.0000 496800.000  138.00000 282.152257  0.000e+00
  1023.2114   4.062334    16.3634      1.633    31.7979    16.3637  8290.0000 497400.000  138.16667 282.159201  0.000e+00
  1023.2082   4.054987    16.3084      1.619    31.7776    16.3086  8300.0000 498000.000  138.33333 282.166146  0.000e+00
  1023.2095   4.056396    16.3182      1.637    31.7820    16.3185  8310.0000 498600.000  138.50000 282.173090  0.000e+00
  1023.2281   4.061438    16.3363      1.619    31.8117    16.3366  8320.0000 499200.000  138.66667 282.180035  0.000e+00
  1023.2235   4.061295    16.3406      1.613    31.8070    16.3409  8330.0000 499800.000  138.83333 282.186979  0.000e+00
  1023.2265   4.063673    16.3561      1.623    31.8154    16.3564  8340.0000 500400.000  139.00000 282.193924  0.000e+00
  1023.2199   4.062562    16.3550      1.612    31.8065    16.3553  8350.0000 501000.000  139.16667 282.200868  0.000e+00
  1023.2034   4.056221    16.3240      1.619    31.7759    16.3243  8360.0000 501600.000  139.33333 282.207812  0.000e+00
  1023.2088   4.059040    16.3401      1.611    31.7877    16.3404  8370.0000 502200.000  139.50000 282.214757  0.000e+00
  1023.1921   4.051299    16.2981      1.619    31.7535    16.2984  8380.0000 502800.000  139.66667 282.221701  0.000e+00
  1023.1905   4.046496    16.2614      1.610    31.7408    16.2617  8390.0000 503400.000  139.83333 282.228646  0.000e+00
  1023.1454   4.035705    16.2288      1.623    31.6723    16.2291  8400.0000 504000.000  140.00000 282.235590  0.000e+00
  1023.1449   4.036762    16.2378      1.612    31.6744    16.2381  8410.0000 504600.000  140.16667 282.242535  0.000e+00
  1023.2000   4.052130    16.2953      1.610    31.7630    16.2956  8420.0000 505200.000  140.33333 282.249479  0.000e+00
  1023.2026   4.054364    16.3101      1.618    31.7707    16.3104  8430.0000 505800.000  140.50000 282.256424  0.000e+00
  1023.2025   4.054747    16.3133      1.620    31.7716    16.3135  8440.0000 506400.000  140.66667 282.263368  0.000e+00
  1023.2222   4.062406    16.3511      1.611    31.8083    16.3513  8450.0000 507000.000  140.83333 282.270312  0.000e+00
  1023.2238   4.059599    16.3267      1.614    31.8033    16.3269  8460.0000 507600.000  141.00000 282.277257  0.000e+00
  1023.1931   4.056130    16.3355      1.606    31.7660    16.3357  8470.0000 508200.000  141.16667 282.284201  0.000e+00
  1023.2015   4.058182    16.3419      1.610    31.7787    16.3422  8480.0000 508800.000  141.33333 282.291146  0.000e+00
  1023.1996   4.057832    16.3414      1.613    31.7761    16.3417  8490.0000 509400.000  141.50000 282.298090  0.000e+00
  1023.1977   4.057500    16.3410      1.601    31.7735    16.3413  8500.0000 510000.000  141.66667 282.305035  0.000e+00
  1023.1905   4.055506    16.3337      1.617    31.7620    16.3339  8510.0000 510600.000  141.83333 282.311979  0.000e+00
  1023.1879   4.054578    16.3293      1.611    31.7573    16.3296  8520.0000 511200.000  142.00000 282.318924  0.000e+00
  1023.1654   4.047456    16.2993      1.625    31.7190    16.2995  8530.0000 511800.000  142.16667 282.325868  0.000e+00
  1023.1889   4.056565    16.3440      1.606    31.7630    16.3443  8540.0000 512400.000  142.33333 282.332812  0.000e+00
  1023.1727   4.051156    16.3201      1.610    31.7348    16.3203  8550.0000 513000.000  142.50000 282.339757  0.000e+00
  1023.1745   4.051805    16.3232      1.626    31.7380    16.3235  8560.0000 513600.000  142.66667 282.346701  0.000e+00
  1023.1843   4.055104    16.3379      1.629    31.7551    16.3381  8570.0000 514200.000  142.83333 282.353646  0.000e+00
  1023.1686   4.048839    16.3066      1.631    31.7253    16.3068  8580.0000 514800.000  143.00000 282.360590  0.000e+00
  1023.1806   4.054220    16.3352      1.619    31.7495    16.3355  8590.0000 515400.000  143.16667 282.367535  0.000e+00
  1023.1834   4.053753    16.3281      1.618    31.7511    16.3284  8600.0000 516000.000  143.33333 282.374479  0.000e+00
  1023.1758   4.051487    16.3190      1.610    31.7386    16.3192  8610.0000 516600.000  143.50000 282.381424  0.000e+00
  1023.1768   4.053227    16.3319      1.639    31.7434    16.3322  8620.0000 517200.000  143.66667 282.388368  0.000e+00
  1023.1957   4.057734    16.3454      1.637    31.7720    16.3457  8630.0000 517800.000  143.83333 282.395312  0.000e+00
  1023.1937   4.058371    16.3528      1.630    31.7717    16.3531  8640.0000 518400.000  144.00000 282.402257  0.000e+00
  1023.1893   4.058208    16.3568      1.626    31.7671    16.3570  8650.0000 519000.000  144.16667 282.409201  0.000e+00
  1023.1837   4.058117    16.3627      1.608    31.7617    16.3629  8660.0000 519600.000  144.33333 282.416146  0.000e+00
  1023.1848   4.058702    16.3662      1.632    31.7640    16.3664  8670.0000 520200.000  144.50000 282.423090  0.000e+00
  1023.1890   4.060593    16.3763      1.634    31.7724    16.3765  8680.0000 520800.000  144.66667 282.430035  0.000e+00
  1023.1953   4.063127    16.3890      1.630    31.7844    16.3893  8690.0000 521400.000  144.83333 282.436979  0.000e+00
  1023.1995   4.064811    16.3974      1.620    31.7924    16.3976  8700.0000 522000.000  145.00000 282.443924  0.000e+00
  1023.2012   4.068055    16.4213      1.628    31.8017    16.4215  8710.0000 522600.000  145.16667 282.450868  0.000e+00
  1023.2042   4.068712    16.4229      1.627    31.8061    16.4232  8720.0000 523200.000  145.33333 282.457812  0.000e+00
  1023.2024   4.069232    16.4292      1.626    31.8056    16.4294  8730.0000 523800.000  145.50000 282.464757  0.000e+00
  1023.2007   4.069466    16.4331      1.632    31.8046    16.4333  8740.0000 524400.000  145.66667 282.471701  0.000e+00
  1023.1947   4.067619    16.4256      1.629    31.7944    16.4258  8750.0000 525000.000  145.83333 282.478646  0.000e+00
  1023.2019   4.068276    16.4222      1.630    31.8029    16.4224  8760.0000 525600.000  146.00000 282.485590  0.000e+00
  1023.2018   4.068900    16.4273      1.628    31.8042    16.4276  8770.0000 526200.000  146.16667 282.492535  0.000e+00
  1023.2103   4.068133    16.4110      1.622    31.8105    16.4113  8780.0000 526800.000  146.33333 282.499479  0.000e+00
  1023.2293   4.071450    16.4149      1.628    31.8364    16.4151  8790.0000 527400.000  146.50000 282.506424  0.000e+00
  1023.2171   4.073558    16.4462      1.638    31.8297    16.4465  8800.0000 528000.000  146.66667 282.513368  0.000e+00
  1023.1899   4.072269    16.4684      1.639    31.8008    16.4687  8810.0000 528600.000  146.83333 282.520312  0.000e+00
  1023.1973   4.073694    16.4709      1.640    31.8113    16.4712  8820.0000 529200.000  147.00000 282.527257  0.000e+00
  1023.1816   4.073785    16.4903      1.624    31.7967    16.4905  8830.0000 529800.000  147.16667 282.534201  0.000e+00
  1023.2034   4.073967    16.4657      1.626    31.8178    16.4660  8840.0000 530400.000  147.33333 282.541146  0.000e+00
  1023.1975   4.073232    16.4669      1.620    31.8104    16.4672  8850.0000 531000.000  147.50000 282.548090  0.000e+00
  1023.2053   4.073610    16.4606      1.615    31.8188    16.4608  8860.0000 531600.000  147.66667 282.555035  0.000e+00
  1023.2066   4.073193    16.4557      1.616    31.8190    16.4560  8870.0000 532200.000  147.83333 282.561979  0.000e+00
  1023.2116   4.073707    16.4539      1.619    31.8249    16.4542  8880.0000 532800.000  148.00000 282.568924  0.000e+00
  1023.2193   4.076161    16.4642      1.608    31.8381    16.4644  8890.0000 533400.000  148.16667 282.575868  0.000e+00
  1023.2207   4.077391    16.4725      1.633    31.8422    16.4727  8900.0000 534000.000  148.33333 282.582812  0.000e+00
  1023.2146   4.078106    16.4854      1.625    31.8381    16.4857  8910.0000 534600.000  148.50000 282.589757  0.000e+00
  1023.2209   4.077000    16.4692      1.637    31.8415    16.4694  8920.0000 535200.000  148.66667 282.596701  0.000e+00
  1023.2166   4.081856    16.5129      1.632    31.8489    16.5132  8930.0000 535800.000  148.83333 282.603646  0.000e+00
  1023.2251   4.084266    16.5218      1.614    31.8628    16.5220  8940.0000 536400.000  149.00000 282.610590  0.000e+00
  1023.2159   4.077631    16.4800      1.615    31.8383    16.4803  8950.0000 537000.000  149.16667 282.617535  0.000e+00
  1023.2176   4.079916    16.4963      1.628    31.8452    16.4965  8960.0000 537600.000  149.33333 282.624479  0.000e+00
  1023.2128   4.080509    16.5066      1.632    31.8421    16.5069  8970.0000 538200.000  149.50000 282.631424  0.000e+00
  1023.2142   4.079532    16.4971      1.608    31.8412    16.4974  8980.0000 538800.000  149.66667 282.638368  0.000e+00
  1023.2171   4.078178    16.4829      1.622    31.8407    16.4832  8990.0000 539400.000  149.83333 282.645312  0.000e+00
  1023.2202   4.075887    16.4610      1.609    31.8383    16.4612  9000.0000 540000.000  150.00000 282.652257  0.000e+00
  1023.2195   4.076180    16.4643      1.663    31.8382    16.4646  9010.0000 540600.000  150.16667 282.659201  0.000e+00
  1023.2188   4.075946    16.4632      1.615    31.8371    16.4634  9020.0000 541200.000  150.33333 282.666146  0.000e+00
  1023.2211   4.073076    16.4376      1.632    31.8324    16.4378  9030.0000 541800.000  150.50000 282.673090  0.000e+00
  1023.2162   4.069557    16.4153      1.607    31.8196    16.4155  9040.0000 542400.000  150.66667 282.680035  0.000e+00
  1023.2167   4.071515    16.4304      1.635    31.8245    16.4307  9050.0000 543000.000  150.83333 282.686979  0.000e+00
  1023.2159   4.074371    16.4540      1.608    31.8307    16.4542  9060.0000 543600.000  151.00000 282.693924  0.000e+00
  1023.2185   4.074566    16.4526      1.635    31.8335    16.4528  9070.0000 544200.000  151.16667 282.700868  0.000e+00
  1023.2163   4.074020    16.4508      1.639    31.8301    16.4511  9080.0000 544800.000  151.33333 282.707812  0.000e+00
  1023.2174   4.073499    16.4453      1.627    31.8300    16.4456  9090.0000 545400.000  151.50000 282.714757  0.000e+00
  1023.2137   4.074351    16.4565      1.617    31.8285    16.4567  9100.0000 546000.000  151.66667 282.721701  0.000e+00
  1023.2157   4.073805    16.4500      1.655    31.8289    16.4502  9110.0000 546600.000  151.83333 282.728646  0.000e+00
  1023.2168   4.073590    16.4467      1.625    31.8296    16.4470  9120.0000 547200.000  152.00000 282.735590  0.000e+00
  1023.2175   4.073291    16.4437      1.636    31.8295    16.4439  9130.0000 547800.000  152.16667 282.742535  0.000e+00
  1023.2177   4.073206    16.4427      1.628    31.8295    16.4429  9140.0000 548400.000  152.33333 282.749479  0.000e+00
  1023.2198   4.073642    16.4437      1.635    31.8325    16.4439  9150.0000 549000.000  152.50000 282.756424  0.000e+00
  1023.2205   4.073968    16.4455      1.637    31.8339    16.4457  9160.0000 549600.000  152.66667 282.763368  0.000e+00
  1023.2208   4.074221    16.4471      1.644    31.8348    16.4474  9170.0000 550200.000  152.83333 282.770312  0.000e+00
  1023.2241   4.073994    16.4412      1.618    31.8375    16.4415  9180.0000 550800.000  153.00000 282.777257  0.000e+00
  1023.2267   4.073890    16.4374      1.640    31.8397    16.4377  9190.0000 551400.000  153.16667 282.784201  0.000e+00
  1023.2270   4.073128    16.4309      1.623    31.8382    16.4312  9200.0000 552000.000  153.33333 282.791146  0.000e+00
  1023.2294   4.071938    16.4187      1.642    31.8376    16.4189  9210.0000 552600.000  153.50000 282.798090  0.000e+00
  1023.2301   4.072088    16.4190      1.640    31.8386    16.4193  9220.0000 553200.000  153.66667 282.805035  0.000e+00
  1023.2313   4.072998    16.4249      1.645    31.8418    16.4252  9230.0000 553800.000  153.83333 282.811979  0.000e+00
  1023.2351   4.072010    16.4124      1.637    31.8432    16.4127  9240.0000 554400.000  154.00000 282.818924  0.000e+00
  1023.2351   4.072335    16.4150      1.626    31.8440    16.4153  9250.0000 555000.000  154.16667 282.825868  0.000e+00
  1023.2381   4.073096    16.4176      1.651    31.8485    16.4179  9260.0000 555600.000  154.33333 282.832812  0.000e+00
  1023.2399   4.073408    16.4178      1.627    31.8511    16.4181  9270.0000 556200.000  154.50000 282.839757  0.000e+00
  1023.2398   4.073935    16.4222      1.637    31.8522    16.4224  9280.0000 556800.000  154.66667 282.846701  0.000e+00
  1023.2398   4.075198    16.4323      1.646    31.8551    16.4326  9290.0000 557400.000  154.83333 282.853646  0.000e+00
  1023.2404   4.075198    16.4316      1.646    31.8557    16.4318  9300.0000 558000.000  155.00000 282.860590  0.000e+00
  1023.2427   4.074976    16.4271      1.638    31.8574    16.4273  9310.0000 558600.000  155.16667 282.867535  0.000e+00
  1023.2414   4.075712    16.4345      1.651    31.8579    16.4347  9320.0000 559200.000  155.33333 282.874479  0.000e+00
  1023.2410   4.076057    16.4377      1.645    31.8583    16.4379  9330.0000 559800.000  155.50000 282.881424  0.000e+00
  1023.2441   4.075998    16.4335      1.641    31.8612    16.4337  9340.0000 560400.000  155.66667 282.888368  0.000e+00
  1023.2446   4.075152    16.4262      1.645    31.8596    16.4264  9350.0000 561000.000  155.83333 282.895312  0.000e+00
  1023.2435   4.075842    16.4331      1.649    31.8601    16.4333  9360.0000 561600.000  156.00000 282.902257  0.000e+00
  1023.2417   4.075907    16.4357      1.632    31.8586    16.4359  9370.0000 562200.000  156.16667 282.909201  0.000e+00
  1023.2436   4.075386    16.4293      1.657    31.8591    16.4296  9380.0000 562800.000  156.33333 282.916146  0.000e+00
  1023.2426   4.075250    16.4293      1.631    31.8580    16.4296  9390.0000 563400.000  156.50000 282.923090  0.000e+00
  1023.2425   4.076499    16.4394      1.651    31.8608    16.4397  9400.0000 564000.000  156.66667 282.930035  0.000e+00
  1023.2436   4.077170    16.4435      1.646    31.8634    16.4437  9410.0000 564600.000  156.83333 282.936979  0.000e+00
  1023.2440   4.077039    16.4420      1.644    31.8635    16.4422  9420.0000 565200.000  157.00000 282.943924  0.000e+00
  1023.2431   4.076232    16.4366      1.654    31.8607    16.4368  9430.0000 565800.000  157.16667 282.950868  0.000e+00
  1023.2436   4.076376    16.4372      1.650    31.8615    16.4374  9440.0000 566400.000  157.33333 282.957812  0.000e+00
  1023.2443   4.076447    16.4368      1.629    31.8624    16.4371  9450.0000 567000.000  157.50000 282.964757  0.000e+00
  1023.2444   4.076701    16.4387      1.632    31.8632    16.4389  9460.0000 567600.000  157.66667 282.971701  0.000e+00
  1023.2446   4.076402    16.4362      1.649    31.8625    16.4364  9470.0000 568200.000  157.83333 282.978646  0.000e+00
  1023.2472   4.073643    16.4110      1.641    31.8585    16.4113  9480.0000 568800.000  158.00000 282.985590  0.000e+00
  1023.2471   4.074150    16.4152      1.646    31.8597    16.4154  9490.0000 569400.000  158.16667 282.992535  0.000e+00
  1023.2481   4.072641    16.4020      1.644    31.8570    16.4023  9500.0000 570000.000  158.33333 282.999479  0.000e+00
  1023.2464   4.074684    16.4203      1.640    31.8603    16.4205  9510.0000 570600.000  158.50000 283.006424  0.000e+00
  1023.2471   4.074007    16.4140      1.640    31.8593    16.4143  9520.0000 571200.000  158.66667 283.013368  0.000e+00
  1023.2489   4.073753    16.4099      1.641    31.8604    16.4102  9530.0000 571800.000  158.83333 283.020312  0.000e+00
  1023.2490   4.073369    16.4068      1.643    31.8595    16.4070  9540.0000 572400.000  159.00000 283.027257  0.000e+00
  1023.2494   4.073395    16.4064      1.651    31.8600    16.4067  9550.0000 573000.000  159.16667 283.034201  0.000e+00
  1023.2496   4.073343    16.4059      1.647    31.8600    16.4061  9560.0000 573600.000  159.33333 283.041146  0.000e+00
  1023.2490   4.073389    16.4069      1.643    31.8597    16.4071  9570.0000 574200.000  159.50000 283.048090  0.000e+00
  1023.2493   4.072979    16.4033      1.641    31.8589    16.4035  9580.0000 574800.000  159.66667 283.055035  0.000e+00
  1023.2491   4.072986    16.4035      1.639    31.8588    16.4038  9590.0000 575400.000  159.83333 283.061979  0.000e+00
  1023.2495   4.073142    16.4043      1.641    31.8596    16.4045  9600.0000 576000.000  160.00000 283.068924  0.000e+00
  1023.2494   4.073109    16.4041      1.637    31.8594    16.4044  9610.0000 576600.000  160.16667 283.075868  0.000e+00
  1023.2495   4.072914    16.4025      1.641    31.8590    16.4028  9620.0000 577200.000  160.33333 283.082812  0.000e+00
  1023.2499   4.072797    16.4010      1.638    31.8591    16.4013  9630.0000 577800.000  160.50000 283.089757  0.000e+00
  1023.2497   4.072862    16.4018      1.634    31.8591    16.4020  9640.0000 578400.000  160.66667 283.096701  0.000e+00
  1023.2513   4.072257    16.3951      1.640    31.8591    16.3954  9650.0000 579000.000  160.83333 283.103646  0.000e+00
  1023.2507   4.072172    16.3951      1.637    31.8584    16.3954  9660.0000 579600.000  161.00000 283.110590  0.000e+00
  1023.2521   4.070637    16.3812      1.637    31.8561    16.3814  9670.0000 580200.000  161.16667 283.117535  0.000e+00
  1023.2513   4.070832    16.3837      1.624    31.8559    16.3839  9680.0000 580800.000  161.33333 283.124479  0.000e+00
  1023.2531   4.067386    16.3540      1.640    31.8494    16.3543  9690.0000 581400.000  161.50000 283.131424  0.000e+00
  1023.2524   4.066800    16.3502      1.639    31.8474    16.3505  9700.0000 582000.000  161.66667 283.138368  0.000e+00
  1023.2519   4.067158    16.3536      1.632    31.8478    16.3539  9710.0000 582600.000  161.83333 283.145312  0.000e+00
  1023.2532   4.067607    16.3558      1.638    31.8500    16.3560  9720.0000 583200.000  162.00000 283.152257  0.000e+00
  1023.2564   4.068719    16.3607      1.624    31.8558    16.3609  9730.0000 583800.000  162.16667 283.159201  0.000e+00
  1023.2555   4.068849    16.3629      1.632    31.8551    16.3632  9740.0000 584400.000  162.33333 283.166146  0.000e+00
  1023.2547   4.068673    16.3624      1.636    31.8540    16.3627  9750.0000 585000.000  162.50000 283.173090  0.000e+00
  1023.2570   4.068914    16.3616      1.631    31.8567    16.3619  9760.0000 585600.000  162.66667 283.180035  0.000e+00
  1023.2556   4.068823    16.3625      1.632    31.8552    16.3628  9770.0000 586200.000  162.83333 283.186979  0.000e+00
  1023.2572   4.069655    16.3672      1.623    31.8587    16.3675  9780.0000 586800.000  163.00000 283.193924  0.000e+00
  1023.2745   4.077098    16.4060      1.629    31.8927    16.4063  9790.0000 587400.000  163.16667 283.200868  0.000e+00
  1023.2763   4.077684    16.4085      1.625    31.8958    16.4088  9800.0000 588000.000  163.33333 283.207812  0.000e+00
  1023.2799   4.079884    16.4218      1.644    31.9043    16.4221  9810.0000 588600.000  163.50000 283.214757  0.000e+00
  1023.2866   4.085140    16.4557      1.656    31.9231    16.4560  9820.0000 589200.000  163.66667 283.221701  0.000e+00
  1023.2912   4.088951    16.4806      1.645    31.9364    16.4808  9830.0000 589800.000  163.83333 283.228646  0.000e+00
  1023.2917   4.088241    16.4742      1.624    31.9354    16.4744  9840.0000 590400.000  164.00000 283.235590  0.000e+00
  1023.2899   4.088703    16.4801      1.627    31.9347    16.4803  9850.0000 591000.000  164.16667 283.242535  0.000e+00
  1023.2986   4.091623    16.4930      1.645    31.9498    16.4933  9860.0000 591600.000  164.33333 283.249479  0.000e+00
  1023.3026   4.092249    16.4932      1.640    31.9551    16.4934  9870.0000 592200.000  164.50000 283.256424  0.000e+00
  1023.2957   4.088371    16.4706      1.652    31.9394    16.4708  9880.0000 592800.000  164.66667 283.263368  0.000e+00
  1023.2926   4.087426    16.4668      1.650    31.9341    16.4671  9890.0000 593400.000  164.83333 283.270312  0.000e+00
  1023.2871   4.087153    16.4710      1.626    31.9284    16.4712  9900.0000 594000.000  165.00000 283.277257  0.000e+00
  1023.3049   4.095704    16.5178      1.643    31.9655    16.5181  9910.0000 594600.000  165.16667 283.284201  0.000e+00
  1023.3034   4.097256    16.5320      1.637    31.9677    16.5322  9920.0000 595200.000  165.33333 283.291146  0.000e+00
  1023.3042   4.096519    16.5251      1.621    31.9667    16.5254  9930.0000 595800.000  165.50000 283.298090  0.000e+00
  1023.3109   4.097856    16.5278      1.631    31.9762    16.5280  9940.0000 596400.000  165.66667 283.305035  0.000e+00
  1023.3195   4.101072    16.5430      1.623    31.9921    16.5433  9950.0000 597000.000  165.83333 283.311979  0.000e+00
  1023.3199   4.101138    16.5430      1.621    31.9926    16.5433  9960.0000 597600.000  166.00000 283.318924  0.000e+00
  1023.3517   4.115946    16.6225      1.620    32.0578    16.6227  9970.0000 598200.000  166.16667 283.325868  0.000e+00
  1023.3375   4.108624    16.5815      1.614    32.0270    16.5817  9980.0000 598800.000  166.33333 283.332812  0.000e+00
  1023.3198   4.102045    16.5504      1.623    31.9946    16.5506  9990.0000 599400.000  166.50000 283.339757  0.000e+00
  1023.3226   4.103630    16.5596      1.611    32.0011    16.5598 10000.0000 600000.000  166.66667 283.346701  0.000e+00
  1023.3227   4.104668    16.5676      1.609    32.0036    16.5679 10010.0000 600600.000  166.83333 283.353646  0.000e+00
  1023.3218   4.105542    16.5757      1.620    32.0048    16.5759 10020.0000 601200.000  167.00000 283.360590  0.000e+00
  1023.3235   4.107351    16.5879      1.606    32.0108    16.5882 10030.0000 601800.000  167.16667 283.367535  0.000e+00
  1023.3265   4.110158    16.6066      1.611    32.0202    16.6069 10040.0000 602400.000  167.33333 283.374479  0.000e+00
  1023.3341   4.112895    16.6192      1.604    32.0339    16.6195 10050.0000 603000.000  167.50000 283.381424  0.000e+00
  1023.3430   4.117723    16.6468      1.612    32.0538    16.6470 10060.0000 603600.000  167.66667 283.388368  0.000e+00
  1023.3480   4.119632    16.6560      1.628    32.0629    16.6563 10070.0000 604200.000  167.83333 283.395312  0.000e+00
  1023.3510   4.120397    16.6585      1.608    32.0676    16.6587 10080.0000 604800.000  168.00000 283.402257  0.000e+00
  1023.3462   4.119926    16.6604      1.614    32.0620    16.6607 10090.0000 605400.000  168.16667 283.409201  0.000e+00
  1023.3503   4.121358    16.6669      1.611    32.0692    16.6671 10100.0000 606000.000  168.33333 283.416146  0.000e+00
  1023.3518   4.120854    16.6612      1.615    32.0695    16.6614 10110.0000 606600.000  168.50000 283.423090  0.000e+00
  1023.3542   4.119704    16.6492      1.616    32.0690    16.6495 10120.0000 607200.000  168.66667 283.430035  0.000e+00
  1023.3362   4.120056    16.6733      1.617    32.0528    16.6735 10130.0000 607800.000  168.83333 283.436979  0.000e+00
  1023.3311   4.123129    16.7036      1.616    32.0552    16.7039 10140.0000 608400.000  169.00000 283.443924  0.000e+00
  1023.3591   4.126177    16.6944      1.603    32.0890    16.6947 10150.0000 609000.000  169.16667 283.450868  0.000e+00
  1023.3556   4.126268    16.6992      1.598    32.0860    16.6995 10160.0000 609600.000  169.33333 283.457812  0.000e+00
  1023.3305   4.125496    16.7230      1.612    32.0603    16.7233 10170.0000 610200.000  169.50000 283.464757  0.000e+00
  1023.3321   4.125438    16.7207      1.619    32.0616    16.7209 10180.0000 610800.000  169.66667 283.471701  0.000e+00
  1023.3561   4.126700    16.7021      1.610    32.0874    16.7024 10190.0000 611400.000  169.83333 283.478646  0.000e+00
  1023.3613   4.129507    16.7181      1.622    32.0989    16.7184 10200.0000 612000.000  170.00000 283.485590  0.000e+00
  1023.3636   4.130756    16.7252      1.604    32.1041    16.7255 10210.0000 612600.000  170.16667 283.492535  0.000e+00
  1023.3341   4.124038    16.7072      1.600    32.0603    16.7074 10220.0000 613200.000  170.33333 283.499479  0.000e+00
  1023.3572   4.129762    16.7250      1.612    32.0957    16.7252 10230.0000 613800.000  170.50000 283.506424  0.000e+00
  1023.3692   4.133656    16.7414      1.605    32.1163    16.7416 10240.0000 614400.000  170.66667 283.513368  0.000e+00
  1023.3519   4.131038    16.7413      1.598    32.0937    16.7415 10250.0000 615000.000  170.83333 283.520312  0.000e+00
  1023.3660   4.134101    16.7486      1.588    32.1144    16.7489 10260.0000 615600.000  171.00000 283.527257  0.000e+00
  1023.3737   4.136870    16.7614      1.611    32.1282    16.7616 10270.0000 616200.000  171.16667 283.534201  0.000e+00
  1023.3748   4.137060    16.7616      1.604    32.1297    16.7618 10280.0000 616800.000  171.33333 283.541146  0.000e+00
  1023.3744   4.137813    16.7680      1.602    32.1311    16.7682 10290.0000 617400.000  171.50000 283.548090  0.000e+00
  1023.3648   4.138298    16.7831      1.601    32.1231    16.7834 10300.0000 618000.000  171.66667 283.555035  0.000e+00
  1023.3730   4.138763    16.7771      1.611    32.1320    16.7774 10310.0000 618600.000  171.83333 283.561979  0.000e+00
  1023.3669   4.140871    16.8007      1.587    32.1313    16.8010 10320.0000 619200.000  172.00000 283.568924  0.000e+00
  1023.3709   4.142345    16.8076      1.589    32.1386    16.8079 10330.0000 619800.000  172.16667 283.575868  0.000e+00
  1023.3765   4.142241    16.8002      1.593    32.1436    16.8005 10340.0000 620400.000  172.33333 283.582812  0.000e+00
  1023.3764   4.143446    16.8098      1.591    32.1464    16.8101 10350.0000 621000.000  172.50000 283.589757  0.000e+00
  1023.3833   4.145170    16.8152      1.599    32.1569    16.8155 10360.0000 621600.000  172.66667 283.596701  0.000e+00
  1023.3852   4.146395    16.8226      1.602    32.1616    16.8229 10370.0000 622200.000  172.83333 283.603646  0.000e+00
  1023.3845   4.148125    16.8369      1.601    32.1651    16.8372 10380.0000 622800.000  173.00000 283.610590  0.000e+00
  1023.3810   4.147214    16.8340      1.602    32.1596    16.8342 10390.0000 623400.000  173.16667 283.617535  0.000e+00
  1023.3795   4.146605    16.8309      1.595    32.1568    16.8312 10400.0000 624000.000  173.33333 283.624479  0.000e+00
  1023.3804   4.146762    16.8311      1.592    32.1580    16.8313 10410.0000 624600.000  173.50000 283.631424  0.000e+00
  1023.3879   4.148552    16.8363      1.592    32.1694    16.8365 10420.0000 625200.000  173.66667 283.638368  0.000e+00
  1023.3906   4.149050    16.8369      1.584    32.1731    16.8372 10430.0000 625800.000  173.83333 283.645312  0.000e+00
  1023.3993   4.150414    16.8374      1.582    32.1846    16.8376 10440.0000 626400.000  174.00000 283.652257  0.000e+00
  1023.3901   4.148466    16.8330      1.587    32.1712    16.8333 10450.0000 627000.000  174.16667 283.659201  0.000e+00
  1023.4020   4.149522    16.8271      1.577    32.1851    16.8274 10460.0000 627600.000  174.33333 283.666146  0.000e+00
  1023.4060   4.155916    16.8726      1.587    32.2040    16.8729 10470.0000 628200.000  174.50000 283.673090  0.000e+00
  1023.4056   4.157392    16.8846      1.585    32.2071    16.8848 10480.0000 628800.000  174.66667 283.680035  0.000e+00
  1023.4016   4.160089    16.9105      1.582    32.2097    16.9107 10490.0000 629400.000  174.83333 283.686979  0.000e+00
  1023.3974   4.156913    16.8905      1.585    32.1982    16.8908 10500.0000 630000.000  175.00000 283.693924  0.000e+00
  1023.3897   4.150315    16.8480      1.582    32.1752    16.8482 10510.0000 630600.000  175.16667 283.700868  0.000e+00
  1023.3818   4.153312    16.8808      1.580    32.1749    16.8810 10520.0000 631200.000  175.33333 283.707812  0.000e+00
  1023.4147   4.163023    16.9180      1.583    32.2291    16.9182 10530.0000 631800.000  175.50000 283.714757  0.000e+00
  1023.4136   4.165098    16.9354      1.574    32.2330    16.9357 10540.0000 632400.000  175.66667 283.721701  0.000e+00
  1023.3998   4.155207    16.8743      1.579    32.1965    16.8746 10550.0000 633000.000  175.83333 283.728646  0.000e+00
  1023.4035   4.159636    16.9047      1.581    32.2104    16.9049 10560.0000 633600.000  176.00000 283.735590  0.000e+00
  1023.4004   4.156933    16.8871      1.575    32.2011    16.8874 10570.0000 634200.000  176.16667 283.742535  0.000e+00
  1023.4052   4.157760    16.8879      1.575    32.2076    16.8882 10580.0000 634800.000  176.33333 283.749479  0.000e+00
  1023.4166   4.164028    16.9236      1.579    32.2332    16.9238 10590.0000 635400.000  176.50000 283.756424  0.000e+00
  1023.4245   4.165059    16.9222      1.573    32.2432    16.9225 10600.0000 636000.000  176.66667 283.763368  0.000e+00
  1023.4204   4.162787    16.9093      1.574    32.2340    16.9095 10610.0000 636600.000  176.83333 283.770312  0.000e+00
  1023.4155   4.161297    16.9035      1.570    32.2257    16.9037 10620.0000 637200.000  177.00000 283.777257  0.000e+00
  1023.4183   4.161592    16.9024      1.570    32.2292    16.9026 10630.0000 637800.000  177.16667 283.784201  0.000e+00
  1023.4214   4.161001    16.8941      1.571    32.2307    16.8944 10640.0000 638400.000  177.33333 283.791146  0.000e+00
  1023.4302   4.164415    16.9105      1.573    32.2471    16.9107 10650.0000 639000.000  177.50000 283.798090  0.000e+00
  1023.4303   4.164612    16.9119      1.565    32.2476    16.9122 10660.0000 639600.000  177.66667 283.805035  0.000e+00
  1023.4321   4.165118    16.9137      1.570    32.2506    16.9140 10670.0000 640200.000  177.83333 283.811979  0.000e+00
  1023.4350   4.165820    16.9157      1.570    32.2550    16.9160 10680.0000 640800.000  178.00000 283.818924  0.000e+00
  1023.4323   4.164901    16.9118      1.570    32.2502    16.9121 10690.0000 641400.000  178.16667 283.825868  0.000e+00
  1023.4415   4.167495    16.9213      1.579    32.2650    16.9215 10700.0000 642000.000  178.33333 283.832812  0.000e+00
  1023.4384   4.167449    16.9245      1.566    32.2620    16.9248 10710.0000 642600.000  178.50000 283.839757  0.000e+00
  1023.4403   4.168579    16.9311      1.565    32.2665    16.9313 10720.0000 643200.000  178.66667 283.846701  0.000e+00
  1023.4423   4.169840    16.9385      1.556    32.2715    16.9387 10730.0000 643800.000  178.83333 283.853646  0.000e+00
  1023.4468   4.169984    16.9344      1.564    32.2760    16.9347 10740.0000 644400.000  179.00000 283.860590  0.000e+00
  1023.4524   4.171036    16.9359      1.554    32.2839    16.9362 10750.0000 645000.000  179.16667 283.867535  0.000e+00
  1023.4528   4.171075    16.9357      1.541    32.2844    16.9359 10760.0000 645600.000  179.33333 283.874479  0.000e+00
  1023.4522   4.171410    16.9392      1.557    32.2845    16.9394 10770.0000 646200.000  179.50000 283.881424  0.000e+00
  1023.4528   4.171732    16.9409      1.536    32.2859    16.9411 10780.0000 646800.000  179.66667 283.888368  0.000e+00
  1023.4500   4.168664    16.9203      1.572    32.2759    16.9206 10790.0000 647400.000  179.83333 283.895312  0.000e+00
  1023.4523   4.171831    16.9423      1.573    32.2856    16.9426 10800.0000 648000.000  180.00000 283.902257  0.000e+00
  1023.4527   4.173901    16.9580      1.567    32.2909    16.9583 10810.0000 648600.000  180.16667 283.909201  0.000e+00
  1023.4525   4.173533    16.9554      1.567    32.2898    16.9556 10820.0000 649200.000  180.33333 283.916146  0.000e+00
  1023.4546   4.173835    16.9552      1.544    32.2926    16.9555 10830.0000 649800.000  180.50000 283.923090  0.000e+00
  1023.4570   4.175294    16.9637      1.547    32.2983    16.9640 10840.0000 650400.000  180.66667 283.930035  0.000e+00
  1023.4573   4.175044    16.9614      1.546    32.2980    16.9617 10850.0000 651000.000  180.83333 283.936979  0.000e+00
  1023.4595   4.175393    16.9615      1.549    32.3010    16.9618 10860.0000 651600.000  181.00000 283.943924  0.000e+00
  1023.4628   4.176076    16.9629      1.532    32.3058    16.9631 10870.0000 652200.000  181.16667 283.950868  0.000e+00
  1023.4627   4.176352    16.9652      1.534    32.3063    16.9654 10880.0000 652800.000  181.33333 283.957812  0.000e+00
  1023.4615   4.176188    16.9654      1.548    32.3047    16.9656 10890.0000 653400.000  181.50000 283.964757  0.000e+00
  1023.4613   4.176300    16.9665      1.547    32.3048    16.9667 10900.0000 654000.000  181.66667 283.971701  0.000e+00
  1023.4619   4.175826    16.9621      1.558    32.3042    16.9624 10910.0000 654600.000  181.83333 283.978646  0.000e+00
  1023.4643   4.176346    16.9633      1.541    32.3078    16.9636 10920.0000 655200.000  182.00000 283.985590  0.000e+00
  1023.4633   4.176162    16.9631      1.551    32.3063    16.9634 10930.0000 655800.000  182.16667 283.992535  0.000e+00
  1023.4634   4.175511    16.9579      1.539    32.3049    16.9581 10940.0000 656400.000  182.33333 283.999479  0.000e+00
  1023.4664   4.173460    16.9384      1.552    32.3028    16.9387 10950.0000 657000.000  182.50000 284.006424  0.000e+00
  1023.4656   4.172646    16.9330      1.542    32.3002    16.9332 10960.0000 657600.000  182.66667 284.013368  0.000e+00
  1023.4659   4.172731    16.9332      1.551    32.3007    16.9335 10970.0000 658200.000  182.83333 284.020312  0.000e+00
  1023.4683   4.174269    16.9424      1.553    32.3066    16.9427 10980.0000 658800.000  183.00000 284.027257  0.000e+00
  1023.4690   4.174696    16.9450      1.551    32.3082    16.9452 10990.0000 659400.000  183.16667 284.034201  0.000e+00
  1023.4711   4.175031    16.9450      1.537    32.3111    16.9452 11000.0000 660000.000  183.33333 284.041146  0.000e+00
  1023.4745   4.176918    16.9558      1.542    32.3187    16.9561 11010.0000 660600.000  183.50000 284.048090  0.000e+00
  1023.4695   4.173697    16.9365      1.540    32.3064    16.9368 11020.0000 661200.000  183.66667 284.055035  0.000e+00
  1023.4694   4.173539    16.9353      1.534    32.3060    16.9356 11030.0000 661800.000  183.83333 284.061979  0.000e+00
  1023.4762   4.171877    16.9144      1.538    32.3085    16.9146 11040.0000 662400.000  184.00000 284.068924  0.000e+00
  1023.4700   4.169367    16.9021      1.536    32.2966    16.9024 11050.0000 663000.000  184.16667 284.075868  0.000e+00
  1023.4680   4.169387    16.9046      1.536    32.2948    16.9048 11060.0000 663600.000  184.33333 284.082812  0.000e+00
  1023.4684   4.169164    16.9024      1.533    32.2946    16.9026 11070.0000 664200.000  184.50000 284.089757  0.000e+00
  1023.4684   4.167305    16.8878      1.539    32.2903    16.8881 11080.0000 664800.000  184.66667 284.096701  0.000e+00
  1023.4702   4.170077    16.9074      1.530    32.2985    16.9076 11090.0000 665400.000  184.83333 284.103646  0.000e+00
  1023.4704   4.170215    16.9082      1.531    32.2991    16.9084 11100.0000 666000.000  185.00000 284.110590  0.000e+00
  1023.4747   4.170530    16.9056      1.529    32.3039    16.9059 11110.0000 666600.000  185.16667 284.117535  0.000e+00
  1023.4746   4.171667    16.9146      1.532    32.3065    16.9148 11120.0000 667200.000  185.33333 284.124479  0.000e+00
  1023.4748   4.171975    16.9168      1.527    32.3074    16.9170 11130.0000 667800.000  185.50000 284.131424  0.000e+00
  1023.4748   4.171174    16.9106      1.529    32.3055    16.9108 11140.0000 668400.000  185.66667 284.138368  0.000e+00
  1023.4772   4.172317    16.9166      1.524    32.3105    16.9168 11150.0000 669000.000  185.83333 284.145312  0.000e+00
  1023.4837   4.177417    16.9487      1.530    32.3287    16.9490 11160.0000 669600.000  186.00000 284.152257  0.000e+00
  1023.4833   4.176011    16.9382      1.524    32.3250    16.9385 11170.0000 670200.000  186.16667 284.159201  0.000e+00
  1023.4957   4.173277    16.9023      1.528    32.3303    16.9025 11180.0000 670800.000  186.33333 284.166146  0.000e+00
  1023.4957   4.174046    16.9083      1.530    32.3321    16.9085 11190.0000 671400.000  186.50000 284.173090  0.000e+00
  1023.4988   4.174079    16.9049      1.542    32.3351    16.9052 11200.0000 672000.000  186.66667 284.180035  0.000e+00
  1023.4941   4.176070    16.9261      1.548    32.3352    16.9264 11210.0000 672600.000  186.83333 284.186979  0.000e+00
  1023.4895   4.175925    16.9303      1.530    32.3306    16.9306 11220.0000 673200.000  187.00000 284.193924  0.000e+00
  1023.4967   4.175077    16.9152      1.543    32.3354    16.9155 11230.0000 673800.000  187.16667 284.200868  0.000e+00
  1023.5002   4.174953    16.9100      1.529    32.3385    16.9103 11240.0000 674400.000  187.33333 284.207812  0.000e+00
  1023.5021   4.175761    16.9141      1.526    32.3422    16.9144 11250.0000 675000.000  187.50000 284.214757  0.000e+00
  1023.5033   4.175294    16.9092      1.540    32.3422    16.9094 11260.0000 675600.000  187.66667 284.221701  0.000e+00
  1023.5080   4.175518    16.9053      1.517    32.3473    16.9055 11270.0000 676200.000  187.83333 284.228646  0.000e+00
  1023.5082   4.175728    16.9067      1.527    32.3479    16.9070 11280.0000 676800.000  188.00000 284.235590  0.000e+00
  1023.5086   4.175965    16.9081      1.527    32.3489    16.9083 11290.0000 677400.000  188.16667 284.242535  0.000e+00
  1023.5120   4.176366    16.9073      1.548    32.3529    16.9076 11300.0000 678000.000  188.33333 284.249479  0.000e+00
  1023.5121   4.176879    16.9112      1.528    32.3543    16.9114 11310.0000 678600.000  188.50000 284.256424  0.000e+00
  1023.5128   4.174729    16.8934      1.521    32.3500    16.8937 11320.0000 679200.000  188.66667 284.263368  0.000e+00
  1023.5145   4.175702    16.8992      1.550    32.3537    16.8995 11330.0000 679800.000  188.83333 284.270312  0.000e+00
  1023.5162   4.176438    16.9028      1.533    32.3572    16.9031 11340.0000 680400.000  189.00000 284.277257  0.000e+00
  1023.5163   4.176307    16.9017      1.526    32.3570    16.9019 11350.0000 681000.000  189.16667 284.284201  0.000e+00
  1023.5150   4.175958    16.9005      1.527    32.3549    16.9008 11360.0000 681600.000  189.33333 284.291146  0.000e+00
  1023.5172   4.176057    16.8987      1.533    32.3572    16.8990 11370.0000 682200.000  189.50000 284.298090  0.000e+00
  1023.5191   4.176990    16.9037      1.534    32.3612    16.9040 11380.0000 682800.000  189.66667 284.305035  0.000e+00
  1023.5196   4.176866    16.9021      1.517    32.3615    16.9024 11390.0000 683400.000  189.83333 284.311979  0.000e+00
  1023.5203   4.177345    16.9052      1.538    32.3631    16.9054 11400.0000 684000.000  190.00000 284.318924  0.000e+00
  1023.5195   4.178115    16.9121      1.528    32.3642    16.9123 11410.0000 684600.000  190.16667 284.325868  0.000e+00
  1023.5194   4.178588    16.9159      1.533    32.3652    16.9162 11420.0000 685200.000  190.33333 284.332812  0.000e+00
  1023.5195   4.178930    16.9185      1.548    32.3661    16.9187 11430.0000 685800.000  190.50000 284.339757  0.000e+00
  1023.5206   4.180140    16.9265      1.519    32.3702    16.9267 11440.0000 686400.000  190.66667 284.346701  0.000e+00
  1023.5215   4.180502    16.9284      1.528    32.3718    16.9286 11450.0000 687000.000  190.83333 284.353646  0.000e+00
  1023.5234   4.181922    16.9371      1.534    32.3770    16.9374 11460.0000 687600.000  191.00000 284.360590  0.000e+00
  1023.5217   4.182021    16.9399      1.545    32.3756    16.9402 11470.0000 688200.000  191.16667 284.367535  0.000e+00
  1023.5219   4.183349    16.9501      1.543    32.3789    16.9503 11480.0000 688800.000  191.33333 284.374479  0.000e+00
   998.9432   0.059781    17.5429     -0.053     0.3420    17.5429 11490.0000 689400.000  191.50000 284.381424  0.000e+00
   998.5500   0.036303    19.0431     -0.036     0.1983    19.0431 11500.0000 690000.000  191.66667 284.388368  0.000e+00
   998.5551   0.025989    18.7977     -0.030     0.1424    18.7977 11510.0000 690600.000  191.83333 284.395312  0.000e+00
   998.5413   0.026284    18.8738     -0.031     0.1438    18.8738 11520.0000 691200.000  192.00000 284.402257  0.000e+00
   998.5172   0.024928    18.9668     -0.052     0.1361    18.9668 11530.0000 691800.000  192.16667 284.409201  0.000e+00
   998.4318   0.024631    19.3872     -0.054     0.1333    19.3872 11540.0000 692400.000  192.33333 284.416146  0.000e+00
   998.3759   0.024360    19.6563     -0.052     0.1311    19.6563 11550.0000 693000.000  192.50000 284.423090  0.000e+00
   998.3397   0.024083    19.8266     -0.062     0.1292    19.8266 11560.0000 693600.000  192.66667 284.430035  0.000e+00
   998.3016   0.023882    20.0060     -0.060     0.1276    20.0060 11570.0000 694200.000  192.83333 284.436979  0.000e+00
   998.2658   0.023792    20.1750     -0.061     0.1267    20.1750 11580.0000 694800.000  193.00000 284.443924  0.000e+00
   998.2330   0.023715    20.3290     -0.057     0.1259    20.3290 11590.0000 695400.000  193.16667 284.450868  0.000e+00
   998.1311   0.026531    20.8552     -0.077     0.1392    20.8552 11600.0000 696000.000  193.33333 284.457812  0.000e+00
